<Bundle xmlns="http://hl7.org/fhir">
    <id value="a0adbc6a-0000-0000-0003-000000000000"/>
    <meta>
        <profile value="https://gematik.de/fhir/erp/StructureDefinition/GEM_ERP_PR_Bundle|1.4"/>
    </meta>
    <identifier>
        <system value="https://gematik.de/fhir/erp/NamingSystem/GEM_ERP_NS_PrescriptionId"/>
        <value value="160.000.006.995.117.74"/>
    </identifier>
    <type value="document"/>
    <timestamp value="2025-06-25T10:30:59.173+00:00"/>
    <link>
        <relation value="self"/>
        <url value="https://erp-test.zentral.erp.splitdns.ti-dienste.de/Task/160.000.006.995.117.74/$close/"/>
    </link>
    <entry>
        <fullUrl value="urn:uuid:838c8f5a-ea32-4be8-bef4-219c84a9aa3f"/>
        <resource>
            <Composition xmlns="http://hl7.org/fhir">
                <id value="838c8f5a-ea32-4be8-bef4-219c84a9aa3f"/>
                <meta>
                    <profile value="https://gematik.de/fhir/erp/StructureDefinition/GEM_ERP_PR_Composition|1.4"/>
                </meta>
                <extension url="https://gematik.de/fhir/erp/StructureDefinition/GEM_ERP_EX_Beneficiary">
                    <valueIdentifier>
                        <system value="https://gematik.de/fhir/sid/telematik-id"/>
                        <value value="3-SMC-B-Testkarte--883110000163973"/>
                    </valueIdentifier>
                </extension>
                <status value="final"/>
                <type>
                    <coding>
                        <system value="https://gematik.de/fhir/erp/CodeSystem/GEM_ERP_CS_DocumentType"/>
                        <code value="3"/>
                        <display value="Receipt"/>
                    </coding>
                </type>
                <date value="2025-06-25T10:30:59.168+00:00"/>
                <author>
                    <reference value="urn:uuid:53d97cea-4cee-4272-bf60-81947e1623d9"/>
                </author>
                <title value="Quittung"/>
                <event>
                    <period>
                        <start value="2025-06-25T10:30:58.354+00:00"/>
                        <end value="2025-06-25T10:30:59.168+00:00"/>
                    </period>
                </event>
                <section>
                    <entry>
                        <reference value="urn:uuid:a078dd47-05a1-4f42-be11-f08ec953eee1"/>
                    </entry>
                </section>
            </Composition>
        </resource>
    </entry>
    <entry>
        <fullUrl value="urn:uuid:53d97cea-4cee-4272-bf60-81947e1623d9"/>
        <resource>
            <Device xmlns="http://hl7.org/fhir">
                <id value="1"/>
                <meta>
                    <profile value="https://gematik.de/fhir/erp/StructureDefinition/GEM_ERP_PR_Device|1.4"/>
                </meta>
                <status value="active"/>
                <serialNumber value="1.18.0"/>
                <deviceName>
                    <name value="E-Rezept Fachdienst"/>
                    <type value="user-friendly-name"/>
                </deviceName>
                <version>
                    <value value="1.18.0"/>
                </version>
                <contact>
                    <system value="email"/>
                    <value value="betrieb@gematik.de"/>
                </contact>
            </Device>
        </resource>
    </entry>
    <entry>
        <fullUrl value="urn:uuid:a078dd47-05a1-4f42-be11-f08ec953eee1"/>
        <resource>
            <Binary xmlns="http://hl7.org/fhir">
                <id value="a078dd47-05a1-4f42-be11-f08ec953eee1"/>
                <meta>
                    <versionId value="1"/>
                    <profile value="https://gematik.de/fhir/erp/StructureDefinition/GEM_ERP_PR_Digest|1.4"/>
                </meta>
                <contentType value="application/octet-stream"/>
                <data value="FjMneDnmWgBoJeD2OrTwffzwvX0O6ojsGefSc685/X8="/>
            </Binary>
        </resource>
    </entry>
    <signature>
        <type>
            <system value="urn:iso-astm:E1762-95:2013"/>
            <code value="1.2.840.10065.1.12.1.1"/>
        </type>
        <when value="2025-06-25T10:30:59.174+00:00"/>
        <who>
            <reference value="urn:uuid:53d97cea-4cee-4272-bf60-81947e1623d9"/>
        </who>
        <sigFormat value="application/pkcs7-mime"/>
        <data value=""/>
    </signature>
</Bundle>