

<Bundle xmlns="http://hl7.org/fhir"><id value="417a25c9-b14d-415c-9413-019b6b28c825"></id><meta><profile value="http://fhir.abda.de/eRezeptAbgabedaten/StructureDefinition/DAV-PR-ERP-AbgabedatenBundle|1.0.3"></profile><tag><system value="http://m16"></system><code value="752"></code></tag></meta><identifier><system value="https://gematik.de/fhir/NamingSystem/PrescriptionID"></system><value value="160.000.022.413.660.59"></value></identifier><type value="document"></type><timestamp value="2021-08-09T13:26:42+02:00"></timestamp><entry><fullUrl value="urn:uuid:5a2f1ed4-56a7-4e39-a6b9-674e7789332e"></fullUrl><resource><Composition><id value="5a2f1ed4-56a7-4e39-a6b9-674e7789332e"></id><meta><profile value="http://fhir.abda.de/eRezeptAbgabedaten/StructureDefinition/DAV-PR-ERP-AbgabedatenComposition|1.0.3"></profile></meta><status value="final"></status><type><coding><system value="http://fhir.abda.de/eRezeptAbgabedaten/CodeSystem/DAV-CS-ERP-CompositionTypes"></system><code value="ERezeptAbgabedaten"></code></coding></type><date value="2021-08-09T13:26:42.0000000+02:00"></date><author><reference value="urn:uuid:fa5fa9c1-79b6-4fb6-a01c-006161ce3520"></reference></author><title value="ERezeptAbgabedaten"></title><section><title value="Abgabeinformationen"></title><entry><reference value="urn:uuid:f82c6c0e-16f5-4d18-bd7b-a51447a7525a"></reference></entry></section><section><title value="Apotheke"></title><entry><reference value="urn:uuid:fa5fa9c1-79b6-4fb6-a01c-006161ce3520"></reference></entry></section></Composition></resource></entry><entry><fullUrl value="urn:uuid:fa5fa9c1-79b6-4fb6-a01c-006161ce3520"></fullUrl><resource><Organization><id value="fa5fa9c1-79b6-4fb6-a01c-006161ce3520"></id><meta><profile value="http://fhir.abda.de/eRezeptAbgabedaten/StructureDefinition/DAV-PR-ERP-Apotheke|1.0.3"></profile></meta><identifier><system value="http://fhir.de/NamingSystem/arge-ik/iknr"></system><value value="309999994"></value></identifier><name value="Malcolm Apotheke"></name><address><type value="physical"></type><line value="Kirchweg 48"><extension url="http://hl7.org/fhir/StructureDefinition/iso21090-ADXP-streetName"><valueString value="Kirchweg"></valueString></extension><extension url="http://hl7.org/fhir/StructureDefinition/iso21090-ADXP-houseNumber"><valueString value="48"></valueString></extension></line><city value="Hirschberg"></city><postalCode value="00088"></postalCode><country value="D"></country></address></Organization></resource></entry><entry><fullUrl value="urn:uuid:f82c6c0e-16f5-4d18-bd7b-a51447a7525a"></fullUrl><resource><MedicationDispense><id value="f82c6c0e-16f5-4d18-bd7b-a51447a7525a"></id><meta><profile value="http://fhir.abda.de/eRezeptAbgabadaten/StructureDefinition/DAV-PR-ERP-Abgabeinformationen|1.0.3"></profile></meta><extension url="http://fhir.abda.de/eRezeptAbgabedaten/StructureDefinition/DAV-EX-ERP-Abrechnungszeilen"><valueReference><reference value="urn:uuid:ab6d876f-5b0b-4511-a00f-79c499b8d4b7"></reference></valueReference></extension><status value="completed"></status><medicationCodeableConcept><coding><system value="http://terminology.hl7.org/CodeSystem/data-absent-reason"></system><code value="not-applicable"></code></coding></medicationCodeableConcept><performer><actor><reference value="urn:uuid:fa5fa9c1-79b6-4fb6-a01c-006161ce3520"></reference></actor></performer><authorizingPrescription><identifier><system value="https://gematik.de/fhir/NamingSystem/PrescriptionID"></system><value value="160.000.022.413.660.59"></value></identifier></authorizingPrescription><type><coding><system value="http://fhir.abda.de/eRezeptAbgabedaten/CodeSystem/DAV-CS-ERP-MedicationDispenseTyp"></system><code value="Abgabeinformationen"></code></coding></type><whenHandedOver value="2021-08-09"></whenHandedOver></MedicationDispense></resource></entry><entry><fullUrl value="urn:uuid:ab6d876f-5b0b-4511-a00f-79c499b8d4b7"></fullUrl><resource><Invoice><id value="ab6d876f-5b0b-4511-a00f-79c499b8d4b7"></id><meta><profile value="http://fhir.abda.de/eRezeptAbgabedaten/StructureDefinition/DAV-PR-ERP-Abrechnungszeilen|1.0.3"></profile></meta><status value="issued"></status><type><coding><system value="http://fhir.abda.de/eRezeptAbgabedaten/CodeSystem/DAV-CS-ERP-InvoiceTyp"></system><code value="Abrechnungszeilen"></code></coding></type><lineItem><extension url="http://fhir.abda.de/eRezeptAbgabedaten/StructureDefinition/DAV-EX-ERP-Zusatzattribute"><extension url="ZusatzattributFAM"><extension url="Markt"><extension url="Gruppe"><valueCodeableConcept><coding><system value="http://fhir.abda.de/eRezeptAbgabedaten/CodeSystem/DAV-CS-ERP-ZusatzattributGruppe"></system><code value="1"></code></coding></valueCodeableConcept></extension><extension url="Schluessel"><valueCodeableConcept><coding><system value="http://fhir.abda.de/eRezeptAbgabedaten/CodeSystem/DAV-CS-ERP-ZusatzattributFAMSchluesselMarkt"></system><code value="2"></code></coding></valueCodeableConcept></extension></extension><extension url="Rabattvertragserfuellung"><extension url="Gruppe"><valueCodeableConcept><coding><system value="http://fhir.abda.de/eRezeptAbgabedaten/CodeSystem/DAV-CS-ERP-ZusatzattributGruppe"></system><code value="2"></code></coding></valueCodeableConcept></extension><extension url="Schluessel"><valueCodeableConcept><coding><system value="http://fhir.abda.de/eRezeptAbgabedaten/CodeSystem/DAV-CS-ERP-ZusatzattributFAMSchluesselAbgaberangfolge"></system><code value="1"></code></coding></valueCodeableConcept></extension></extension><extension url="PreisguenstigesFAM"><extension url="Gruppe"><valueCodeableConcept><coding><system value="http://fhir.abda.de/eRezeptAbgabedaten/CodeSystem/DAV-CS-ERP-ZusatzattributGruppe"></system><code value="3"></code></coding></valueCodeableConcept></extension><extension url="Schluessel"><valueCodeableConcept><coding><system value="http://fhir.abda.de/eRezeptAbgabedaten/CodeSystem/DAV-CS-ERP-ZusatzattributFAMSchluesselAbgaberangfolge"></system><code value="0"></code></coding></valueCodeableConcept></extension></extension><extension url="ImportFAM"><extension url="Gruppe"><valueCodeableConcept><coding><system value="http://fhir.abda.de/eRezeptAbgabedaten/CodeSystem/DAV-CS-ERP-ZusatzattributGruppe"></system><code value="4"></code></coding></valueCodeableConcept></extension><extension url="Schluessel"><valueCodeableConcept><coding><system value="http://fhir.abda.de/eRezeptAbgabedaten/CodeSystem/DAV-CS-ERP-ZusatzattributFAMSchluesselAbgaberangfolge"></system><code value="0"></code></coding></valueCodeableConcept></extension></extension></extension></extension><sequence value="1"></sequence><chargeItemCodeableConcept><coding><system value="http://fhir.de/CodeSystem/ifa/pzn"></system><code value="08850519"></code></coding></chargeItemCodeableConcept><priceComponent><extension url="http://fhir.abda.de/eRezeptAbgabedaten/StructureDefinition/DAV-EX-ERP-MwStSatz"><valueDecimal value="19.00"></valueDecimal></extension><extension url="http://fhir.abda.de/eRezeptAbgabedaten/StructureDefinition/DAV-EX-ERP-KostenVersicherter"><extension url="Kategorie"><valueCodeableConcept><coding><system value="http://fhir.abda.de/eRezeptAbgabedaten/CodeSystem/DAV-CS-ERP-KostenVersicherterKategorie"></system><code value="0"></code></coding></valueCodeableConcept></extension><extension url="Kostenbetrag"><valueMoney><value value="0.00"></value><currency value="EUR"></currency></valueMoney></extension></extension><type value="informational"></type><factor value="1"></factor><amount><value value="106.42"></value><currency value="EUR"></currency></amount></priceComponent></lineItem><totalGross><extension url="http://fhir.abda.de/eRezeptAbgabedaten/StructureDefinition/DAV-EX-ERP-Gesamtzuzahlung"><valueMoney><value value="0.00"></value><currency value="EUR"></currency></valueMoney></extension><value value="106.42"></value><currency value="EUR"></currency></totalGross></Invoice></resource></entry></Bundle>