{
  "resourceType": "Bundle",
  "id": "bd3431c4-a1a3-40ae-a600-4da612182a07",
  "type": "searchset",
  "timestamp": "2022-08-29T10:32:57.155+00:00",
  "total": 0,
  "link": [ {
    "relation": "self",
    "url": "https://erp-test.zentral.erp.splitdns.ti-dienste.de/MedicationDispense?identifier=160.000.000.036.804.31"
  } ],
  "entry": [ {
    "fullUrl": "https://erp-test.zentral.erp.splitdns.ti-dienste.de/MedicationDispense/160.000.000.036.804.31",
    "resource": {
      "resourceType": "MedicationDispense",
      "id": "160.000.000.036.804.31",
      "meta": {
        "profile": [ "https://gematik.de/fhir/StructureDefinition/ErxMedicationDispense|1.1.1" ]
      },
      "contained": [ {
        "resourceType": "Medication",
        "id": "85b2c396-1f3b-42a1-9221-e42a36a808dc",
        "meta": {
          "profile": [ "https://fhir.kbv.de/StructureDefinition/KBV_PR_ERP_Medication_PZN|1.0.2" ]
        },
        "extension": [ {
          "url": "https://fhir.kbv.de/StructureDefinition/KBV_EX_ERP_Medication_Category",
          "valueCoding": {
            "system": "https://fhir.kbv.de/CodeSystem/KBV_CS_ERP_Medication_Category",
            "code": "01"
          }
        }, {
          "url": "https://fhir.kbv.de/StructureDefinition/KBV_EX_ERP_Medication_Vaccine",
          "valueBoolean": false
        }, {
          "url": "http://fhir.de/StructureDefinition/normgroesse",
          "valueCode": "N1"
        } ],
        "code": {
          "coding": [ {
            "system": "http://fhir.de/CodeSystem/ifa/pzn",
            "code": "04100230"
          } ],
          "text": "IBUFLAM akut"
        },
        "form": {
          "coding": [ {
            "system": "https://fhir.kbv.de/CodeSystem/KBV_CS_SFHIR_KBV_DARREICHUNGSFORM",
            "code": "FTA"
          } ]
        },
        "amount": {
          "numerator": {
            "value": 10,
            "unit": "Stk"
          },
          "denominator": {
            "value": 1
          }
        },
        "batch": {
          "lotNumber": "3636953511",
          "expirationDate": "2024-11-11T20:30:08+01:00"
        }
      } ],
      "identifier": [ {
        "system": "https://gematik.de/fhir/NamingSystem/PrescriptionID",
        "value": "160.000.000.036.804.31"
      } ],
      "status": "completed",
      "medicationReference": {
        "reference": "#85b2c396-1f3b-42a1-9221-e42a36a808dc"
      },
      "subject": {
        "identifier": {
          "system": "http://fhir.de/NamingSystem/gkv/kvid-10",
          "value": "X110498565"
        }
      },
      "performer": [ {
        "actor": {
          "identifier": {
            "system": "https://gematik.de/fhir/NamingSystem/TelematikID",
            "value": "3-SMC-B-Testkarte-883110000116873"
          }
        }
      } ],
      "whenHandedOver": "2022-08-29"
    },
    "search": {
      "mode": "match"
    }
  }, {
    "fullUrl": "https://erp-test.zentral.erp.splitdns.ti-dienste.de/MedicationDispense/160.000.000.036.804.31-1",
    "resource": {
      "resourceType": "MedicationDispense",
      "id": "160.000.000.036.804.31-1",
      "meta": {
        "profile": [ "https://gematik.de/fhir/StructureDefinition/ErxMedicationDispense|1.1.1" ]
      },
      "contained": [ {
        "resourceType": "Medication",
        "id": "dc801c13-7824-452c-b27f-9d0ba24656f9",
        "meta": {
          "profile": [ "https://fhir.kbv.de/StructureDefinition/KBV_PR_ERP_Medication_PZN|1.0.2" ]
        },
        "extension": [ {
          "url": "https://fhir.kbv.de/StructureDefinition/KBV_EX_ERP_Medication_Category",
          "valueCoding": {
            "system": "https://fhir.kbv.de/CodeSystem/KBV_CS_ERP_Medication_Category",
            "code": "01"
          }
        }, {
          "url": "https://fhir.kbv.de/StructureDefinition/KBV_EX_ERP_Medication_Vaccine",
          "valueBoolean": false
        }, {
          "url": "http://fhir.de/StructureDefinition/normgroesse",
          "valueCode": "N2"
        } ],
        "code": {
          "coding": [ {
            "system": "http://fhir.de/CodeSystem/ifa/pzn",
            "code": "04100218"
          } ],
          "text": "IBUFLAM akut"
        },
        "form": {
          "coding": [ {
            "system": "https://fhir.kbv.de/CodeSystem/KBV_CS_SFHIR_KBV_DARREICHUNGSFORM",
            "code": "FTA"
          } ]
        },
        "amount": {
          "numerator": {
            "value": 20,
            "unit": "Stk"
          },
          "denominator": {
            "value": 1
          }
        },
        "batch": {
          "lotNumber": "7445037751",
          "expirationDate": "2023-07-31T02:21:52+02:00"
        }
      } ],
      "identifier": [ {
        "system": "https://gematik.de/fhir/NamingSystem/PrescriptionID",
        "value": "160.000.000.036.804.31"
      } ],
      "status": "completed",
      "medicationReference": {
        "reference": "#dc801c13-7824-452c-b27f-9d0ba24656f9"
      },
      "subject": {
        "identifier": {
          "system": "http://fhir.de/NamingSystem/gkv/kvid-10",
          "value": "X110498565"
        }
      },
      "performer": [ {
        "actor": {
          "identifier": {
            "system": "https://gematik.de/fhir/NamingSystem/TelematikID",
            "value": "3-SMC-B-Testkarte-883110000116873"
          }
        }
      } ],
      "whenHandedOver": "2022-08-29"
    },
    "search": {
      "mode": "match"
    }
  }, {
    "fullUrl": "https://erp-test.zentral.erp.splitdns.ti-dienste.de/MedicationDispense/160.000.000.036.804.31-2",
    "resource": {
      "resourceType": "MedicationDispense",
      "id": "160.000.000.036.804.31-2",
      "meta": {
        "profile": [ "https://gematik.de/fhir/StructureDefinition/ErxMedicationDispense|1.1.1" ]
      },
      "contained": [ {
        "resourceType": "Medication",
        "id": "afcc93fc-5809-4d6f-a364-3de2d5f7517a",
        "meta": {
          "profile": [ "https://fhir.kbv.de/StructureDefinition/KBV_PR_ERP_Medication_PZN|1.0.2" ]
        },
        "extension": [ {
          "url": "https://fhir.kbv.de/StructureDefinition/KBV_EX_ERP_Medication_Category",
          "valueCoding": {
            "system": "https://fhir.kbv.de/CodeSystem/KBV_CS_ERP_Medication_Category",
            "code": "00"
          }
        }, {
          "url": "https://fhir.kbv.de/StructureDefinition/KBV_EX_ERP_Medication_Vaccine",
          "valueBoolean": false
        }, {
          "url": "http://fhir.de/StructureDefinition/normgroesse",
          "valueCode": "N2"
        } ],
        "code": {
          "coding": [ {
            "system": "http://fhir.de/CodeSystem/ifa/pzn",
            "code": "04100218"
          } ],
          "text": "IBUFLAM akut"
        },
        "form": {
          "coding": [ {
            "system": "https://fhir.kbv.de/CodeSystem/KBV_CS_SFHIR_KBV_DARREICHUNGSFORM",
            "code": "FTA"
          } ]
        },
        "amount": {
          "numerator": {
            "value": 20,
            "unit": "Stk"
          },
          "denominator": {
            "value": 1
          }
        },
        "batch": {
          "lotNumber": "8708402345",
          "expirationDate": "2022-10-01T22:52:14+02:00"
        }
      } ],
      "identifier": [ {
        "system": "https://gematik.de/fhir/NamingSystem/PrescriptionID",
        "value": "160.000.000.036.804.31"
      } ],
      "status": "completed",
      "medicationReference": {
        "reference": "#afcc93fc-5809-4d6f-a364-3de2d5f7517a"
      },
      "subject": {
        "identifier": {
          "system": "http://fhir.de/NamingSystem/gkv/kvid-10",
          "value": "X110498565"
        }
      },
      "performer": [ {
        "actor": {
          "identifier": {
            "system": "https://gematik.de/fhir/NamingSystem/TelematikID",
            "value": "3-SMC-B-Testkarte-883110000116873"
          }
        }
      } ],
      "whenHandedOver": "2022-08-29"
    },
    "search": {
      "mode": "match"
    }
  } ]
}