{
  "resourceType": "Bundle",
  "id": "3f657313-e44e-487b-b06a-277580968de9",
  "type": "collection",
  "timestamp": "2022-11-02T07:24:31.482+00:00",
  "link": [ {
    "relation": "self",
    "url": "https://erp-test.zentral.erp.splitdns.ti-dienste.de/Task/169.000.000.006.874.07"
  } ],
  "entry": [ {
    "fullUrl": "https://erp-test.zentral.erp.splitdns.ti-dienste.de/Task/169.000.000.006.874.07",
    "resource": {
      "resourceType": "Task",
      "id": "169.000.000.006.874.07",
      "meta": {
        "profile": [ "https://gematik.de/fhir/StructureDefinition/ErxTask|1.1.1" ]
      },
      "extension": [ {
        "url": "https://gematik.de/fhir/StructureDefinition/PrescriptionType",
        "valueCoding": {
          "system": "https://gematik.de/fhir/CodeSystem/Flowtype",
          "code": "169",
          "display": "Muster 16 (Direkte Zuweisung)"
        }
      }, {
        "url": "https://gematik.de/fhir/StructureDefinition/ExpiryDate",
        "valueDate": "2023-02-02"
      }, {
        "url": "https://gematik.de/fhir/StructureDefinition/AcceptDate",
        "valueDate": "2022-11-30"
      } ],
      "identifier": [ {
        "use": "official",
        "system": "https://gematik.de/fhir/NamingSystem/PrescriptionID",
        "value": "169.000.000.006.874.07"
      } ],
      "status": "ready",
      "intent": "order",
      "for": {
        "identifier": {
          "system": "http://fhir.de/NamingSystem/gkv/kvid-10",
          "value": "X110498565"
        }
      },
      "authoredOn": "2022-11-02T07:24:16.018+00:00",
      "lastModified": "2022-11-02T07:24:16.276+00:00",
      "performerType": [ {
        "coding": [ {
          "system": "urn:ietf:rfc:3986",
          "code": "urn:oid:1.2.276.0.76.4.54",
          "display": "Öffentliche Apotheke"
        } ],
        "text": "Öffentliche Apotheke"
      } ],
      "input": [ {
        "type": {
          "coding": [ {
            "system": "https://gematik.de/fhir/CodeSystem/Documenttype",
            "code": "2"
          } ]
        },
        "valueReference": {
          "reference": "urn:uuid:a9da1a00-0000-0000-0002-000000000000"
        }
      } ]
    }
  }, {
    "fullUrl": "urn:uuid:a9da1a00-0000-0000-0002-000000000000",
    "resource": {
      "resourceType": "Bundle",
      "id": "a9da1a00-0000-0000-0002-000000000000",
      "meta": {
        "lastUpdated": "2022-11-02T08:24:15.848+01:00",
        "profile": [ "https://fhir.kbv.de/StructureDefinition/KBV_PR_ERP_Bundle|1.0.2" ]
      },
      "identifier": {
        "system": "https://gematik.de/fhir/NamingSystem/PrescriptionID",
        "value": "169.000.000.006.874.07"
      },
      "type": "document",
      "timestamp": "2022-11-02T08:24:15.848+01:00",
      "entry": [ {
        "fullUrl": "https://pvs.gematik.de/fhir/Composition/58fb121c-9fff-43ac-b7a2-32b86a1bdf50",
        "resource": {
          "resourceType": "Composition",
          "id": "58fb121c-9fff-43ac-b7a2-32b86a1bdf50",
          "meta": {
            "profile": [ "https://fhir.kbv.de/StructureDefinition/KBV_PR_ERP_Composition|1.0.2" ]
          },
          "extension": [ {
            "url": "https://fhir.kbv.de/StructureDefinition/KBV_EX_FOR_Legal_basis",
            "valueCoding": {
              "system": "https://fhir.kbv.de/CodeSystem/KBV_CS_SFHIR_KBV_STATUSKENNZEICHEN",
              "code": "00"
            }
          } ],
          "status": "final",
          "type": {
            "coding": [ {
              "system": "https://fhir.kbv.de/CodeSystem/KBV_CS_SFHIR_KBV_FORMULAR_ART",
              "code": "e16A"
            } ]
          },
          "subject": {
            "reference": "Patient/e8b9a422-77cb-4096-bed3-24a087028be2"
          },
          "date": "2022-11-02T08:24:15+01:00",
          "author": [ {
            "reference": "Practitioner/121c1eab-0aa6-4407-910b-7049e06c3670",
            "type": "Practitioner"
          }, {
            "type": "Device",
            "identifier": {
              "system": "https://fhir.kbv.de/NamingSystem/KBV_NS_FOR_Pruefnummer",
              "value": "GEMATIK/410/2109/36/123"
            }
          } ],
          "title": "elektronische Arzneimittelverordnung",
          "custodian": {
            "reference": "Organization/3e96bf21-5ff6-42d7-85d2-a64b52b42aba"
          },
          "section": [ {
            "code": {
              "coding": [ {
                "system": "https://fhir.kbv.de/CodeSystem/KBV_CS_ERP_Section_Type",
                "code": "Coverage"
              } ]
            },
            "entry": [ {
              "reference": "Coverage/27190d61-c370-48d6-8553-db8fccf06f75"
            } ]
          }, {
            "code": {
              "coding": [ {
                "system": "https://fhir.kbv.de/CodeSystem/KBV_CS_ERP_Section_Type",
                "code": "Prescription"
              } ]
            },
            "entry": [ {
              "reference": "MedicationRequest/744bb62d-4230-4aee-a9b6-106c6939eded"
            } ]
          } ]
        }
      }, {
        "fullUrl": "https://pvs.gematik.de/fhir/MedicationRequest/744bb62d-4230-4aee-a9b6-106c6939eded",
        "resource": {
          "resourceType": "MedicationRequest",
          "id": "744bb62d-4230-4aee-a9b6-106c6939eded",
          "meta": {
            "profile": [ "https://fhir.kbv.de/StructureDefinition/KBV_PR_ERP_Prescription|1.0.2" ]
          },
          "extension": [ {
            "url": "https://fhir.kbv.de/StructureDefinition/KBV_EX_ERP_BVG",
            "valueBoolean": false
          }, {
            "url": "https://fhir.kbv.de/StructureDefinition/KBV_EX_ERP_EmergencyServicesFee",
            "valueBoolean": false
          }, {
            "url": "https://fhir.kbv.de/StructureDefinition/KBV_EX_ERP_Multiple_Prescription",
            "extension": [ {
              "url": "Kennzeichen",
              "valueBoolean": false
            } ]
          }, {
            "url": "https://fhir.kbv.de/StructureDefinition/KBV_EX_ERP_StatusCoPayment",
            "valueCoding": {
              "system": "https://fhir.kbv.de/CodeSystem/KBV_CS_ERP_StatusCoPayment",
              "code": "0"
            }
          } ],
          "status": "active",
          "intent": "order",
          "medicationReference": {
            "reference": "Medication/258f81da-2e4c-44db-8b73-189511e2e26e"
          },
          "subject": {
            "reference": "Patient/e8b9a422-77cb-4096-bed3-24a087028be2"
          },
          "authoredOn": "2022-11-02",
          "requester": {
            "reference": "Practitioner/121c1eab-0aa6-4407-910b-7049e06c3670"
          },
          "insurance": [ {
            "reference": "Coverage/27190d61-c370-48d6-8553-db8fccf06f75"
          } ],
          "dosageInstruction": [ {
            "extension": [ {
              "url": "https://fhir.kbv.de/StructureDefinition/KBV_EX_ERP_DosageFlag",
              "valueBoolean": true
            } ],
            "text": "1-0-0-0"
          } ],
          "dispenseRequest": {
            "quantity": {
              "value": 1,
              "system": "http://unitsofmeasure.org",
              "code": "{Package}"
            }
          },
          "substitution": {
            "allowedBoolean": true
          }
        }
      }, {
        "fullUrl": "https://pvs.gematik.de/fhir/Medication/258f81da-2e4c-44db-8b73-189511e2e26e",
        "resource": {
          "resourceType": "Medication",
          "id": "258f81da-2e4c-44db-8b73-189511e2e26e",
          "meta": {
            "profile": [ "https://fhir.kbv.de/StructureDefinition/KBV_PR_ERP_Medication_PZN|1.0.2" ]
          },
          "extension": [ {
            "url": "https://fhir.kbv.de/StructureDefinition/KBV_EX_ERP_Medication_Category",
            "valueCoding": {
              "system": "https://fhir.kbv.de/CodeSystem/KBV_CS_ERP_Medication_Category",
              "code": "00"
            }
          }, {
            "url": "https://fhir.kbv.de/StructureDefinition/KBV_EX_ERP_Medication_Vaccine",
            "valueBoolean": false
          }, {
            "url": "http://fhir.de/StructureDefinition/normgroesse",
            "valueCode": "NB"
          } ],
          "code": {
            "coding": [ {
              "system": "http://fhir.de/CodeSystem/ifa/pzn",
              "code": "00380399"
            } ],
            "text": "Zytostatika"
          },
          "form": {
            "coding": [ {
              "system": "https://fhir.kbv.de/CodeSystem/KBV_CS_SFHIR_KBV_DARREICHUNGSFORM",
              "code": "TAB"
            } ]
          },
          "amount": {
            "numerator": {
              "value": 1,
              "unit": "Stk"
            },
            "denominator": {
              "value": 1
            }
          }
        }
      }, {
        "fullUrl": "https://pvs.gematik.de/fhir/Patient/e8b9a422-77cb-4096-bed3-24a087028be2",
        "resource": {
          "resourceType": "Patient",
          "id": "e8b9a422-77cb-4096-bed3-24a087028be2",
          "meta": {
            "profile": [ "https://fhir.kbv.de/StructureDefinition/KBV_PR_FOR_Patient|1.0.3" ]
          },
          "identifier": [ {
            "type": {
              "coding": [ {
                "system": "http://fhir.de/CodeSystem/identifier-type-de-basis",
                "code": "GKV"
              } ]
            },
            "system": "http://fhir.de/NamingSystem/gkv/kvid-10",
            "value": "X110498565"
          } ],
          "name": [ {
            "use": "official",
            "family": "Hüllmann",
            "given": [ "Sina" ]
          } ],
          "birthDate": "2002-04-04",
          "address": [ {
            "type": "both",
            "line": [ "Am Weiher 05c" ],
            "_line": [ {
              "extension": [ {
                "url": "http://hl7.org/fhir/StructureDefinition/iso21090-ADXP-houseNumber",
                "valueString": "05c"
              }, {
                "url": "http://hl7.org/fhir/StructureDefinition/iso21090-ADXP-streetName",
                "valueString": "Am Weiher"
              } ]
            } ],
            "city": "Bad Charlotte",
            "postalCode": "44133",
            "country": "D"
          } ]
        }
      }, {
        "fullUrl": "https://pvs.gematik.de/fhir/Organization/3e96bf21-5ff6-42d7-85d2-a64b52b42aba",
        "resource": {
          "resourceType": "Organization",
          "id": "3e96bf21-5ff6-42d7-85d2-a64b52b42aba",
          "meta": {
            "profile": [ "https://fhir.kbv.de/StructureDefinition/KBV_PR_FOR_Organization|1.0.3" ]
          },
          "identifier": [ {
            "type": {
              "coding": [ {
                "system": "http://terminology.hl7.org/CodeSystem/v2-0203",
                "code": "BSNR"
              } ]
            },
            "system": "https://fhir.kbv.de/NamingSystem/KBV_NS_Base_BSNR",
            "value": "016172459"
          } ],
          "name": "Arztpraxis Schraßer",
          "telecom": [ {
            "system": "phone",
            "value": "+49-4655-19083872"
          }, {
            "system": "email",
            "value": "markus.lichtenfeld@hoppe.ch"
          } ],
          "address": [ {
            "type": "both",
            "line": [ "Kieler Str. 35a" ],
            "_line": [ {
              "extension": [ {
                "url": "http://hl7.org/fhir/StructureDefinition/iso21090-ADXP-houseNumber",
                "valueString": "35a"
              }, {
                "url": "http://hl7.org/fhir/StructureDefinition/iso21090-ADXP-streetName",
                "valueString": "Kieler Str."
              } ]
            } ],
            "city": "Mehmetberg",
            "postalCode": "38634",
            "country": "D"
          } ]
        }
      }, {
        "fullUrl": "https://pvs.gematik.de/fhir/Coverage/27190d61-c370-48d6-8553-db8fccf06f75",
        "resource": {
          "resourceType": "Coverage",
          "id": "27190d61-c370-48d6-8553-db8fccf06f75",
          "meta": {
            "profile": [ "https://fhir.kbv.de/StructureDefinition/KBV_PR_FOR_Coverage|1.0.3" ]
          },
          "extension": [ {
            "url": "http://fhir.de/StructureDefinition/gkv/besondere-personengruppe",
            "valueCoding": {
              "system": "https://fhir.kbv.de/CodeSystem/KBV_CS_SFHIR_KBV_PERSONENGRUPPE",
              "code": "00"
            }
          }, {
            "url": "http://fhir.de/StructureDefinition/gkv/dmp-kennzeichen",
            "valueCoding": {
              "system": "https://fhir.kbv.de/CodeSystem/KBV_CS_SFHIR_KBV_DMP",
              "code": "00"
            }
          }, {
            "url": "http://fhir.de/StructureDefinition/gkv/wop",
            "valueCoding": {
              "system": "https://fhir.kbv.de/CodeSystem/KBV_CS_SFHIR_ITA_WOP",
              "code": "51"
            }
          }, {
            "url": "http://fhir.de/StructureDefinition/gkv/versichertenart",
            "valueCoding": {
              "system": "https://fhir.kbv.de/CodeSystem/KBV_CS_SFHIR_KBV_VERSICHERTENSTATUS",
              "code": "1"
            }
          } ],
          "status": "active",
          "type": {
            "coding": [ {
              "system": "http://fhir.de/CodeSystem/versicherungsart-de-basis",
              "code": "GKV"
            } ]
          },
          "beneficiary": {
            "reference": "Patient/d891c458-7dbf-4bf5-8956-77e4fe205c23"
          },
          "payor": [ {
            "identifier": {
              "system": "http://fhir.de/NamingSystem/arge-ik/iknr",
              "value": "514227155"
            },
            "display": "KVED Krankenversicherungs-AG Hamburg"
          } ]
        }
      }, {
        "fullUrl": "https://pvs.gematik.de/fhir/Practitioner/121c1eab-0aa6-4407-910b-7049e06c3670",
        "resource": {
          "resourceType": "Practitioner",
          "id": "121c1eab-0aa6-4407-910b-7049e06c3670",
          "meta": {
            "profile": [ "https://fhir.kbv.de/StructureDefinition/KBV_PR_FOR_Practitioner|1.0.3" ]
          },
          "identifier": [ {
            "type": {
              "coding": [ {
                "system": "http://terminology.hl7.org/CodeSystem/v2-0203",
                "code": "LANR"
              } ]
            },
            "system": "https://fhir.kbv.de/NamingSystem/KBV_NS_Base_ANR",
            "value": "966749658"
          } ],
          "name": [ {
            "use": "official",
            "family": "Schraßer",
            "given": [ "Dr." ],
            "prefix": [ "Dr." ],
            "_prefix": [ {
              "extension": [ {
                "url": "http://hl7.org/fhir/StructureDefinition/iso21090-EN-qualifier",
                "valueCode": "AC"
              } ]
            } ]
          } ],
          "qualification": [ {
            "code": {
              "coding": [ {
                "system": "https://fhir.kbv.de/CodeSystem/KBV_CS_FOR_Qualification_Type",
                "code": "00"
              } ]
            }
          }, {
            "code": {
              "text": "Super-Facharzt für alles Mögliche"
            }
          } ]
        }
      } ],
      "signature": {
        "type": [ {
          "system": "urn:iso-astm:E1762-95:2013",
          "code": "1.2.840.10065.1.12.1.5"
        } ],
        "when": "2022-11-02T07:24:31.482+00:00",
        "who": {
          "reference": "https://erp-test.zentral.erp.splitdns.ti-dienste.de/Device/1"
        },
        "targetFormat": "application/fhir+json",
        "sigFormat": "application/jose",
        "data": ""
      }
    }
  } ]
}