{
  "resourceType": "Bundle",
  "id": "Response-App-GETChargeItemById",
  "meta": {
    "lastUpdated": "2021-09-02T11:38:42.557+00:00"
  },
  "type": "searchset",
  "total": 4,
  "entry": [
    {
      "fullUrl": "https://prescriptionserver.telematik/ChargeItem/abc825bc-bc30-45f8-b109-1b343fff5c45",
      "resource": {
        "resourceType": "ChargeItem",
        "id": "App-ChargeItem-abc825bc-bc30-45f8-b109-1b343fff5c45",
        "meta": {
          "profile": [
            "https://gematik.de/fhir/erpchrg/StructureDefinition/GEM_ERPCHRG_PR_ChargeItem|1.0"
          ]
        },
        "extension": [
          {
            "url": "https://gematik.de/fhir/erpchrg/StructureDefinition/GEM_ERPCHRG_EX_MarkingFlag",
            "extension": [
              {
                "url": "insuranceProvider",
                "valueBoolean": false
              },
              {
                "url": "subsidy",
                "valueBoolean": false
              },
              {
                "url": "taxOffice",
                "valueBoolean": false
              }
            ]
          }
        ],
        "identifier": [
          {
            "system": "https://gematik.de/fhir/erp/NamingSystem/GEM_ERP_NS_PrescriptionId",
            "value": "200.086.824.605.539.20"
          },
          {
            "system": "https://gematik.de/fhir/erp/NamingSystem/GEM_ERP_NS_AccessCode",
            "value": "777bea0e13cc9c42ceec14aec3ddee2263325dc2c6c699db115f58fe423607ea"
          }
        ],
        "status": "billable",
        "code": {
          "coding": [
            {
              "code": "not-applicable",
              "system": "http://terminology.hl7.org/CodeSystem/data-absent-reason"
            }
          ]
        },
        "subject": {
          "identifier": {
            "system": "http://fhir.de/sid/pkv/kvid-10",
            "value": "X234567890"
          }
        },
        "enterer": {
          "identifier": {
            "system": "https://gematik.de/fhir/sid/telematik-id",
            "value": "3-SMC-B-Testkarte-883110000095957"
          }
        },
        "enteredDate": "2021-06-01T07:13:00+05:00",
        "supportingInformation": [
          {
            "reference": "Bundle/414ca393-dde3-4082-9a3b-3752e629e4aa",
            "display": "https://fhir.kbv.de/StructureDefinition/KBV_PR_ERP_Bundle"
          },
          {
            "reference": "Bundle/f548dde3-a319-486b-8624-6176ff41ad90",
            "display": "http://fhir.abda.de/eRezeptAbgabedaten/StructureDefinition/DAV-PKV-PR-ERP-AbgabedatenBundle"
          },
          {
            "reference": "Bundle/dffbfd6a-5712-4798-bdc8-07201eb77ab8",
            "display": "https://gematik.de/fhir/erp/StructureDefinition/GEM_ERP_PR_Bundle"
          }
        ]
      }
    },
    {
      "fullUrl": "https://prescriptionserver.telematik/Bundle/414ca393-dde3-4082-9a3b-3752e629e4aa",
      "resource": {
        "resourceType": "Bundle",
        "id": "414ca393-dde3-4082-9a3b-3752e629e4aa",
        "meta": {
          "lastUpdated": "2022-05-20T08:30:00Z",
          "profile": [
            "https://fhir.kbv.de/StructureDefinition/KBV_PR_ERP_Bundle|1.1.0"
          ]
        },
        "identifier": {
          "system": "https://gematik.de/fhir/erp/NamingSystem/GEM_ERP_NS_PrescriptionId",
          "value": "200.086.824.605.539.20"
        },
        "type": "document",
        "timestamp": "2022-05-20T08:30:00Z",
        "entry": [
          {
            "fullUrl": "http://pvs.praxis.local/fhir/Composition/1e33b2b8-770b-4dc2-8d73-74c1989540c4",
            "resource": {
              "resourceType": "Composition",
              "id": "1e33b2b8-770b-4dc2-8d73-74c1989540c4",
              "meta": {
                "profile": [
                  "https://fhir.kbv.de/StructureDefinition/KBV_PR_ERP_Composition|1.1.0"
                ]
              },
              "extension": [
                {
                  "url": "https://fhir.kbv.de/StructureDefinition/KBV_EX_FOR_Legal_basis",
                  "valueCoding": {
                    "code": "00",
                    "system": "https://fhir.kbv.de/CodeSystem/KBV_CS_SFHIR_KBV_STATUSKENNZEICHEN"
                  }
                }
              ],
              "status": "final",
              "type": {
                "coding": [
                  {
                    "code": "e16A",
                    "system": "https://fhir.kbv.de/CodeSystem/KBV_CS_SFHIR_KBV_FORMULAR_ART"
                  }
                ]
              },
              "subject": {
                "reference": "Patient/30635f5d-c233-4500-94e8-6414940236aa"
              },
              "date": "2022-05-20T08:00:00Z",
              "author": [
                {
                  "reference": "Practitioner/d6f3b55d-3095-4655-96dc-da3bec21271c",
                  "type": "Practitioner"
                },
                {
                  "type": "Device",
                  "identifier": {
                    "system": "https://fhir.kbv.de/NamingSystem/KBV_NS_FOR_Pruefnummer",
                    "value": "Y/400/2107/36/999"
                  }
                }
              ],
              "title": "elektronische Arzneimittelverordnung",
              "custodian": {
                "reference": "Organization/2a555cd3-0543-483c-88b3-f68647620962"
              },
              "section": [
                {
                  "code": {
                    "coding": [
                      {
                        "code": "Prescription",
                        "system": "https://fhir.kbv.de/CodeSystem/KBV_CS_ERP_Section_Type"
                      }
                    ]
                  },
                  "entry": [
                    {
                      "reference": "MedicationRequest/c40ede18-da4b-11eb-8d19-0242ac130003"
                    }
                  ]
                },
                {
                  "code": {
                    "coding": [
                      {
                        "code": "Coverage",
                        "system": "https://fhir.kbv.de/CodeSystem/KBV_CS_ERP_Section_Type"
                      }
                    ]
                  },
                  "entry": [
                    {
                      "reference": "Coverage/e51239e1-ba74-48e0-97fb-9754d2b05c60"
                    }
                  ]
                }
              ]
            }
          },
          {
            "fullUrl": "http://pvs.praxis.local/fhir/MedicationRequest/c40ede18-da4b-11eb-8d19-0242ac130003",
            "resource": {
              "resourceType": "MedicationRequest",
              "id": "c40ede18-da4b-11eb-8d19-0242ac130003",
              "meta": {
                "profile": [
                  "https://fhir.kbv.de/StructureDefinition/KBV_PR_ERP_Prescription|1.1.0"
                ]
              },
              "extension": [
                {
                  "url": "https://fhir.kbv.de/StructureDefinition/KBV_EX_FOR_StatusCoPayment",
                  "valueCoding": {
                    "code": "0",
                    "system": "https://fhir.kbv.de/CodeSystem/KBV_CS_FOR_StatusCoPayment"
                  }
                },
                {
                  "url": "https://fhir.kbv.de/StructureDefinition/KBV_EX_ERP_EmergencyServicesFee",
                  "valueBoolean": false
                },
                {
                  "url": "https://fhir.kbv.de/StructureDefinition/KBV_EX_ERP_BVG",
                  "valueBoolean": false
                },
                {
                  "url": "https://fhir.kbv.de/StructureDefinition/KBV_EX_ERP_Multiple_Prescription",
                  "extension": [
                    {
                      "url": "Kennzeichen",
                      "valueBoolean": false
                    }
                  ]
                }
              ],
              "status": "active",
              "intent": "order",
              "medicationReference": {
                "reference": "Medication/125115cc-da48-11eb-8d19-0242ac130003"
              },
              "subject": {
                "reference": "Patient/30635f5d-c233-4500-94e8-6414940236aa"
              },
              "authoredOn": "2022-05-20",
              "requester": {
                "reference": "Practitioner/d6f3b55d-3095-4655-96dc-da3bec21271c"
              },
              "insurance": [
                {
                  "reference": "Coverage/e51239e1-ba74-48e0-97fb-9754d2b05c60"
                }
              ],
              "dispenseRequest": {
                "quantity": {
                  "value": 1,
                  "code": "{Package}",
                  "system": "http://unitsofmeasure.org"
                }
              },
              "substitution": {
                "allowedBoolean": false
              }
            }
          },
          {
            "fullUrl": "http://pvs.praxis.local/fhir/Medication/125115cc-da48-11eb-8d19-0242ac130003",
            "resource": {
              "resourceType": "Medication",
              "id": "125115cc-da48-11eb-8d19-0242ac130003",
              "meta": {
                "profile": [
                  "https://fhir.kbv.de/StructureDefinition/KBV_PR_ERP_Medication_PZN|1.1.0"
                ]
              },
              "extension": [
                {
                  "url": "https://fhir.kbv.de/StructureDefinition/KBV_EX_Base_Medication_Type",
                  "valueCodeableConcept": {
                    "coding": [
                      {
                        "version": "http://snomed.info/sct/900000000000207008/version/20220331",
                        "code": "763158003",
                        "system": "http://snomed.info/sct",
                        "display": "Medicinal product (product)"
                      }
                    ]
                  }
                },
                {
                  "url": "https://fhir.kbv.de/StructureDefinition/KBV_EX_ERP_Medication_Category",
                  "valueCoding": {
                    "code": "00",
                    "system": "https://fhir.kbv.de/CodeSystem/KBV_CS_ERP_Medication_Category"
                  }
                },
                {
                  "url": "https://fhir.kbv.de/StructureDefinition/KBV_EX_ERP_Medication_Vaccine",
                  "valueBoolean": false
                },
                {
                  "url": "http://fhir.de/StructureDefinition/normgroesse",
                  "valueCode": "N2"
                }
              ],
              "code": {
                "coding": [
                  {
                    "code": "10203603",
                    "system": "http://fhir.de/CodeSystem/ifa/pzn"
                  }
                ],
                "text": "ASPIRIN 500MG UEBERZ TABL, 20 St"
              },
              "form": {
                "coding": [
                  {
                    "code": "UTA",
                    "system": "https://fhir.kbv.de/CodeSystem/KBV_CS_SFHIR_KBV_DARREICHUNGSFORM"
                  }
                ]
              }
            }
          },
          {
            "fullUrl": "http://pvs.praxis.local/fhir/Patient/30635f5d-c233-4500-94e8-6414940236aa",
            "resource": {
              "resourceType": "Patient",
              "id": "30635f5d-c233-4500-94e8-6414940236aa",
              "meta": {
                "profile": [
                  "https://fhir.kbv.de/StructureDefinition/KBV_PR_FOR_Patient|1.1.0"
                ]
              },
              "identifier": [
                {
                  "type": {
                    "coding": [
                      {
                        "code": "GKV",
                        "system": "http://fhir.de/CodeSystem/identifier-type-de-basis"
                      }
                    ]
                  },
                  "system": "http://fhir.de/sid/gkv/kvid-10",
                  "value": "K220645122"
                }
              ],
              "name": [
                {
                  "use": "official",
                  "family": "Schuhmann",
                  "_family": {
                    "extension": [
                      {
                        "url": "http://hl7.org/fhir/StructureDefinition/humanname-own-name",
                        "valueString": "Schuhmann"
                      }
                    ]
                  },
                  "given": [
                    "Sahra"
                  ]
                }
              ],
              "birthDate": "1970-12-24",
              "address": [
                {
                  "type": "both",
                  "line": [
                    "Berliner Straße 1"
                  ],
                  "_line": [
                    {
                      "extension": [
                        {
                          "url": "http://hl7.org/fhir/StructureDefinition/iso21090-ADXP-houseNumber",
                          "valueString": "1"
                        },
                        {
                          "url": "http://hl7.org/fhir/StructureDefinition/iso21090-ADXP-streetName",
                          "valueString": "Berliner Straße"
                        }
                      ]
                    }
                  ],
                  "city": "Husum",
                  "postalCode": "25813",
                  "country": "D"
                }
              ]
            }
          },
          {
            "fullUrl": "http://pvs.praxis.local/fhir/Practitioner/d6f3b55d-3095-4655-96dc-da3bec21271c",
            "resource": {
              "resourceType": "Practitioner",
              "id": "d6f3b55d-3095-4655-96dc-da3bec21271c",
              "meta": {
                "profile": [
                  "https://fhir.kbv.de/StructureDefinition/KBV_PR_FOR_Practitioner|1.1.0"
                ]
              },
              "identifier": [
                {
                  "type": {
                    "coding": [
                      {
                        "code": "LANR",
                        "system": "http://terminology.hl7.org/CodeSystem/v2-0203"
                      }
                    ]
                  },
                  "system": "https://fhir.kbv.de/NamingSystem/KBV_NS_Base_ANR",
                  "value": "754236701"
                }
              ],
              "name": [
                {
                  "use": "official",
                  "family": "Schulz",
                  "_family": {
                    "extension": [
                      {
                        "url": "http://hl7.org/fhir/StructureDefinition/humanname-own-name",
                        "valueString": "Schulz"
                      }
                    ]
                  },
                  "given": [
                    "Ben"
                  ]
                }
              ],
              "qualification": [
                {
                  "code": {
                    "coding": [
                      {
                        "code": "00",
                        "system": "https://fhir.kbv.de/CodeSystem/KBV_CS_FOR_Qualification_Type"
                      }
                    ]
                  }
                },
                {
                  "code": {
                    "coding": [
                      {
                        "code": "Berufsbezeichnung",
                        "system": "https://fhir.kbv.de/CodeSystem/KBV_CS_FOR_Berufsbezeichnung"
                      }
                    ],
                    "text": "Facharzt für Allgemeinmedizin"
                  }
                }
              ]
            }
          },
          {
            "fullUrl": "http://pvs.praxis.local/fhir/Organization/2a555cd3-0543-483c-88b3-f68647620962",
            "resource": {
              "resourceType": "Organization",
              "id": "2a555cd3-0543-483c-88b3-f68647620962",
              "meta": {
                "profile": [
                  "https://fhir.kbv.de/StructureDefinition/KBV_PR_FOR_Organization|1.1.0"
                ]
              },
              "identifier": [
                {
                  "type": {
                    "coding": [
                      {
                        "code": "BSNR",
                        "system": "http://terminology.hl7.org/CodeSystem/v2-0203"
                      }
                    ]
                  },
                  "system": "https://fhir.kbv.de/NamingSystem/KBV_NS_Base_BSNR",
                  "value": "724444400"
                }
              ],
              "name": "Hausarztpraxis",
              "telecom": [
                {
                  "system": "phone",
                  "value": "030321654987"
                },
                {
                  "system": "email",
                  "value": "hausarztpraxis@e-mail.de"
                }
              ],
              "address": [
                {
                  "type": "both",
                  "line": [
                    "Herbert-Lewin-Platz 2",
                    "Erdgeschoss"
                  ],
                  "_line": [
                    {
                      "extension": [
                        {
                          "url": "http://hl7.org/fhir/StructureDefinition/iso21090-ADXP-houseNumber",
                          "valueString": "2"
                        },
                        {
                          "url": "http://hl7.org/fhir/StructureDefinition/iso21090-ADXP-streetName",
                          "valueString": "Herbert-Lewin-Platz"
                        }
                      ]
                    },
                    {
                      "extension": [
                        {
                          "url": "http://hl7.org/fhir/StructureDefinition/iso21090-ADXP-additionalLocator",
                          "valueString": "Erdgeschoss"
                        }
                      ]
                    }
                  ],
                  "city": "Berlin",
                  "postalCode": "10623",
                  "country": "D"
                }
              ]
            }
          },
          {
            "fullUrl": "http://pvs.praxis.local/fhir/Coverage/e51239e1-ba74-48e0-97fb-9754d2b05c60",
            "resource": {
              "resourceType": "Coverage",
              "id": "e51239e1-ba74-48e0-97fb-9754d2b05c60",
              "meta": {
                "profile": [
                  "https://fhir.kbv.de/StructureDefinition/KBV_PR_FOR_Coverage|1.1.0"
                ]
              },
              "extension": [
                {
                  "url": "http://fhir.de/StructureDefinition/gkv/besondere-personengruppe",
                  "valueCoding": {
                    "code": "00",
                    "system": "https://fhir.kbv.de/CodeSystem/KBV_CS_SFHIR_KBV_PERSONENGRUPPE"
                  }
                },
                {
                  "url": "http://fhir.de/StructureDefinition/gkv/dmp-kennzeichen",
                  "valueCoding": {
                    "code": "00",
                    "system": "https://fhir.kbv.de/CodeSystem/KBV_CS_SFHIR_KBV_DMP"
                  }
                },
                {
                  "url": "http://fhir.de/StructureDefinition/gkv/wop",
                  "valueCoding": {
                    "code": "01",
                    "system": "https://fhir.kbv.de/CodeSystem/KBV_CS_SFHIR_ITA_WOP"
                  }
                },
                {
                  "url": "http://fhir.de/StructureDefinition/gkv/versichertenart",
                  "valueCoding": {
                    "code": "1",
                    "system": "https://fhir.kbv.de/CodeSystem/KBV_CS_SFHIR_KBV_VERSICHERTENSTATUS"
                  }
                }
              ],
              "status": "active",
              "type": {
                "coding": [
                  {
                    "code": "SEL",
                    "system": "http://fhir.de/CodeSystem/versicherungsart-de-basis"
                  }
                ]
              },
              "beneficiary": {
                "reference": "Patient/30635f5d-c233-4500-94e8-6414940236aa"
              },
              "payor": [
                {
                  "identifier": {
                    "system": "http://fhir.de/sid/arge-ik/iknr",
                    "value": "108018347"
                  },
                  "display": "AOK Baden-Württemberg"
                }
              ]
            }
          }
        ],
        "signature": {
          "type": [
            {
              "code": "1.2.840.10065.1.12.1.1",
              "system": "urn:iso-astm:E1762-95:2013"
            }
          ],
          "when": "2022-03-18T15:28:00+00:00",
          "who": {
            "reference": "https://erp.zentral.erp.splitdns.ti-dienste.de/Device/1"
          },
          "sigFormat": "application/pkcs7-mime",
          "data": "dGhpcyBibG9iIGlzIHNuaXBwZWQ="
        }
      }
    },
    {
      "fullUrl": "https://prescriptionserver.telematik/Bundle/f548dde3-a319-486b-8624-6176ff41ad90",
      "resource": {
        "resourceType": "Bundle",
        "id": "f548dde3-a319-486b-8624-6176ff41ad90",
        "meta": {
          "profile": [
            "http://fhir.abda.de/eRezeptAbgabedaten/StructureDefinition/DAV-PKV-PR-ERP-AbgabedatenBundle|1.2"
          ],
          "tag": [
            {
              "display": "Beispiel RezeptAbgabedatenPKV Bundle (FAM + Noctu + Rezeptänderung)"
            }
          ]
        },
        "type": "document",
        "identifier": {
          "system": "https://gematik.de/fhir/erp/NamingSystem/GEM_ERP_NS_PrescriptionId",
          "value": "200.086.824.605.539.20"
        },
        "timestamp": "2022-03-25T23:40:00Z",
        "entry": [
          {
            "resource": {
              "resourceType": "Composition",
              "id": "4dc5f425-b9b6-4e39-9166-42668ead6c86",
              "meta": {
                "profile": [
                  "http://fhir.abda.de/eRezeptAbgabedaten/StructureDefinition/DAV-PKV-PR-ERP-AbgabedatenComposition|1.2"
                ]
              },
              "status": "final",
              "type": {
                "coding": [
                  {
                    "code": "ERezeptAbgabedaten",
                    "system": "http://fhir.abda.de/eRezeptAbgabedaten/CodeSystem/DAV-CS-ERP-CompositionTypes"
                  }
                ]
              },
              "title": "ERezeptAbgabedaten",
              "section": [
                {
                  "title": "Abgabeinformationen",
                  "entry": [
                    {
                      "reference": "urn:uuid:37a647b8-cb89-491a-af0f-f9bffc2b386c"
                    }
                  ]
                },
                {
                  "title": "Apotheke",
                  "entry": [
                    {
                      "reference": "urn:uuid:1fa57d53-812b-4cab-a42e-94a12481108a"
                    }
                  ]
                }
              ],
              "date": "2022-03-25T23:40:00Z",
              "author": [
                {
                  "reference": "urn:uuid:1fa57d53-812b-4cab-a42e-94a12481108a"
                }
              ]
            },
            "fullUrl": "urn:uuid:4dc5f425-b9b6-4e39-9166-42668ead6c86"
          },
          {
            "fullUrl": "urn:uuid:1fa57d53-812b-4cab-a42e-94a12481108a",
            "resource": {
              "resourceType": "Organization",
              "id": "1fa57d53-812b-4cab-a42e-94a12481108a",
              "meta": {
                "profile": [
                  "http://fhir.abda.de/eRezeptAbgabedaten/StructureDefinition/DAV-PKV-PR-ERP-Apotheke|1.2"
                ]
              },
              "identifier": [
                {
                  "system": "http://fhir.de/sid/arge-ik/iknr",
                  "value": "123456789"
                }
              ],
              "address": [
                {
                  "type": "physical",
                  "line": [
                    "Taunusstraße 89"
                  ],
                  "_line": [
                    {
                      "extension": [
                        {
                          "url": "http://hl7.org/fhir/StructureDefinition/iso21090-ADXP-streetName",
                          "valueString": "Taunusstraße"
                        },
                        {
                          "url": "http://hl7.org/fhir/StructureDefinition/iso21090-ADXP-houseNumber",
                          "valueString": "89"
                        }
                      ]
                    }
                  ],
                  "city": "Langen",
                  "postalCode": "63225",
                  "country": "D"
                }
              ],
              "name": "Adler-Apotheke"
            }
          },
          {
            "fullUrl": "urn:uuid:37a647b8-cb89-491a-af0f-f9bffc2b386c",
            "resource": {
              "resourceType": "MedicationDispense",
              "id": "37a647b8-cb89-491a-af0f-f9bffc2b386c",
              "meta": {
                "profile": [
                  "http://fhir.abda.de/eRezeptAbgabedaten/StructureDefinition/DAV-PKV-PR-ERP-Abgabeinformationen|1.2"
                ]
              },
              "status": "completed",
              "medicationCodeableConcept": {
                "coding": [
                  {
                    "code": "not-applicable",
                    "system": "http://terminology.hl7.org/CodeSystem/data-absent-reason"
                  }
                ]
              },
              "type": {
                "coding": [
                  {
                    "code": "Abgabeinformationen",
                    "system": "http://fhir.abda.de/eRezeptAbgabedaten/CodeSystem/DAV-CS-ERP-MedicationDispenseTyp"
                  }
                ]
              },
              "extension": [
                {
                  "url": "http://fhir.abda.de/eRezeptAbgabedaten/StructureDefinition/DAV-EX-ERP-Abrechnungszeilen",
                  "valueReference": {
                    "reference": "urn:uuid:8a99bfa5-f7aa-4741-99d8-f1abbd301ae1"
                  }
                },
                {
                  "url": "http://fhir.abda.de/eRezeptAbgabedaten/StructureDefinition/DAV-PKV-EX-ERP-AbrechnungsTyp",
                  "valueCodeableConcept": {
                    "coding": [
                      {
                        "code": "1",
                        "system": "http://fhir.abda.de/eRezeptAbgabedaten/CodeSystem/DAV-PKV-CS-ERP-AbrechnungsTyp"
                      }
                    ]
                  }
                }
              ],
              "authorizingPrescription": [
                {
                  "identifier": {
                    "system": "https://gematik.de/fhir/erp/NamingSystem/GEM_ERP_NS_PrescriptionId",
                    "value": "200.086.824.605.539.20"
                  }
                }
              ],
              "substitution": {
                "extension": [
                  {
                    "extension": [
                      {
                        "url": "ArtRezeptaenderung",
                        "valueCodeableConcept": {
                          "coding": [
                            {
                              "code": "21",
                              "system": "http://fhir.abda.de/eRezeptAbgabedaten/CodeSystem/DAV-PKV-CS-ERP-ArtRezeptaenderung"
                            }
                          ]
                        }
                      },
                      {
                        "url": "RueckspracheArzt",
                        "valueCodeableConcept": {
                          "coding": [
                            {
                              "code": "2",
                              "system": "http://fhir.abda.de/eRezeptAbgabedaten/CodeSystem/DAV-CS-ERP-RueckspracheArzt"
                            }
                          ]
                        }
                      }
                    ],
                    "url": "http://fhir.abda.de/eRezeptAbgabedaten/StructureDefinition/DAV-EX-ERP-Rezeptaenderung"
                  }
                ],
                "wasSubstituted": true
              },
              "performer": [
                {
                  "actor": {
                    "reference": "urn:uuid:1fa57d53-812b-4cab-a42e-94a12481108a"
                  }
                }
              ],
              "whenHandedOver": "2022-03-25"
            }
          },
          {
            "fullUrl": "urn:uuid:8a99bfa5-f7aa-4741-99d8-f1abbd301ae1",
            "resource": {
              "resourceType": "Invoice",
              "id": "8a99bfa5-f7aa-4741-99d8-f1abbd301ae1",
              "meta": {
                "profile": [
                  "http://fhir.abda.de/eRezeptAbgabedaten/StructureDefinition/DAV-PKV-PR-ERP-Abrechnungszeilen|1.2"
                ]
              },
              "status": "issued",
              "type": {
                "coding": [
                  {
                    "code": "Abrechnungszeilen",
                    "system": "http://fhir.abda.de/eRezeptAbgabedaten/CodeSystem/DAV-CS-ERP-InvoiceTyp"
                  }
                ]
              },
              "lineItem": [
                {
                  "priceComponent": [
                    {
                      "type": "informational",
                      "extension": [
                        {
                          "url": "http://fhir.abda.de/eRezeptAbgabedaten/StructureDefinition/DAV-EX-ERP-MwStSatz",
                          "valueDecimal": 19.00
                        },
                        {
                          "url": "http://fhir.abda.de/eRezeptAbgabedaten/StructureDefinition/DAV-EX-ERP-KostenVersicherter",
                          "extension": [
                            {
                              "url": "Kategorie",
                              "valueCodeableConcept": {
                                "coding": [
                                  {
                                    "code": "0",
                                    "system": "http://fhir.abda.de/eRezeptAbgabedaten/CodeSystem/DAV-PKV-CS-ERP-KostenVersicherterKategorie"
                                  }
                                ]
                              }
                            },
                            {
                              "url": "Kostenbetrag",
                              "valueMoney": {
                                "currency": "EUR",
                                "value": 0.00
                              }
                            }
                          ]
                        }
                      ],
                      "amount": {
                        "currency": "EUR",
                        "value": 48.98
                      },
                      "factor": 2
                    }
                  ],
                  "sequence": 1,
                  "chargeItemCodeableConcept": {
                    "coding": [
                      {
                        "code": "11514676",
                        "system": "http://fhir.de/CodeSystem/ifa/pzn"
                      }
                    ],
                    "text": "AMOXICILLIN / CLAVULANSÄURE HEUMANN 875MG/125MG FTA"
                  }
                },
                {
                  "priceComponent": [
                    {
                      "type": "informational",
                      "extension": [
                        {
                          "url": "http://fhir.abda.de/eRezeptAbgabedaten/StructureDefinition/DAV-EX-ERP-MwStSatz",
                          "valueDecimal": 19.00
                        },
                        {
                          "url": "http://fhir.abda.de/eRezeptAbgabedaten/StructureDefinition/DAV-EX-ERP-KostenVersicherter",
                          "extension": [
                            {
                              "url": "Kategorie",
                              "valueCodeableConcept": {
                                "coding": [
                                  {
                                    "code": "0",
                                    "system": "http://fhir.abda.de/eRezeptAbgabedaten/CodeSystem/DAV-PKV-CS-ERP-KostenVersicherterKategorie"
                                  }
                                ]
                              }
                            },
                            {
                              "url": "Kostenbetrag",
                              "valueMoney": {
                                "currency": "EUR",
                                "value": 0.00
                              }
                            }
                          ]
                        }
                      ],
                      "amount": {
                        "currency": "EUR",
                        "value": 2.50
                      },
                      "factor": 1
                    }
                  ],
                  "extension": [
                    {
                      "extension": [
                        {
                          "extension": [
                            {
                              "url": "Gruppe",
                              "valueCodeableConcept": {
                                "coding": [
                                  {
                                    "code": "11",
                                    "system": "http://fhir.abda.de/eRezeptAbgabedaten/CodeSystem/DAV-CS-ERP-ZusatzattributGruppe"
                                  }
                                ]
                              }
                            },
                            {
                              "url": "DatumUhrzeit",
                              "valueDateTime": "2022-03-25T23:30:00.0Z"
                            },
                            {
                              "url": "Schluessel",
                              "valueBoolean": true
                            }
                          ],
                          "url": "ZusatzattributAbgabeNoctu"
                        }
                      ],
                      "url": "http://fhir.abda.de/eRezeptAbgabedaten/StructureDefinition/DAV-EX-ERP-Zusatzattribute"
                    }
                  ],
                  "sequence": 2,
                  "chargeItemCodeableConcept": {
                    "coding": [
                      {
                        "code": "02567018",
                        "system": "http://fhir.de/CodeSystem/ifa/pzn"
                      }
                    ],
                    "text": "Noctu-Zusatzgebühr"
                  }
                }
              ],
              "totalGross": {
                "currency": "EUR",
                "extension": [
                  {
                    "url": "http://fhir.abda.de/eRezeptAbgabedaten/StructureDefinition/DAV-EX-ERP-Gesamtzuzahlung",
                    "valueMoney": {
                      "currency": "EUR",
                      "value": 51.48
                    }
                  }
                ],
                "value": 51.48
              }
            }
          }
        ],
        "signature": {
          "type": [
            {
              "code": "1.2.840.10065.1.12.1.1",
              "system": "urn:iso-astm:E1762-95:2013"
            }
          ],
          "when": "2022-03-18T15:28:00+00:00",
          "who": {
            "reference": "https://pharmacy-konn/Device/1"
          },
          "onBehalfOf": {
            "identifier": {
              "system": "https://gematik.de/fhir/sid/telematik-id",
              "value": "3-SMC-B-Testkarte-883110000129070"
            }
          },
          "sigFormat": "application/pkcs7-mime",
          "data": "dGhpcyBibG9iIGlzIHNuaXBwZWQ="
        }
      }
    },
    {
      "fullUrl": "https://prescriptionserver.telematik/Bundle/dffbfd6a-5712-4798-bdc8-07201eb77ab8",
      "resource": {
        "resourceType": "Bundle",
        "id": "dffbfd6a-5712-4798-bdc8-07201eb77ab8",
        "meta": {
          "profile": [
            "https://gematik.de/fhir/erp/StructureDefinition/GEM_ERP_PR_Bundle|1.2"
          ],
          "tag": [
            {
              "display": "Receipt Bundle 'Quittung' for completed dispensation of a prescription"
            }
          ]
        },
        "type": "document",
        "identifier": {
          "system": "https://gematik.de/fhir/erp/NamingSystem/GEM_ERP_NS_PrescriptionId",
          "value": "200.086.824.605.539.20"
        },
        "timestamp": "2022-03-18T15:28:00+00:00",
        "entry": [
          {
            "fullUrl": "urn:uuid:c624cf47-e235-4624-af71-0a09dc9254dc",
            "resource": {
              "resourceType": "Composition",
              "id": "c624cf47-e235-4624-af71-0a09dc9254dc",
              "meta": {
                "profile": [
                  "https://gematik.de/fhir/erp/StructureDefinition/GEM_ERP_PR_Composition|1.2"
                ]
              },
              "status": "final",
              "title": "Quittung",
              "extension": [
                {
                  "url": "https://gematik.de/fhir/erp/StructureDefinition/GEM_ERP_EX_Beneficiary",
                  "valueIdentifier": {
                    "system": "https://gematik.de/fhir/sid/telematik-id",
                    "value": "3-SMC-B-Testkarte-883110000129070"
                  }
                }
              ],
              "type": {
                "coding": [
                  {
                    "code": "3",
                    "system": "https://gematik.de/fhir/erp/CodeSystem/GEM_ERP_CS_DocumentType",
                    "display": "Receipt"
                  }
                ]
              },
              "date": "2022-03-18T15:29:00+00:00",
              "author": [
                {
                  "reference": "https://erp.zentral.erp.splitdns.ti-dienste.de/Device/1"
                }
              ],
              "event": [
                {
                  "period": {
                    "start": "2022-03-18T15:28:00+00:00",
                    "end": "2022-03-18T15:29:00+00:00"
                  }
                }
              ],
              "section": [
                {
                  "entry": [
                    {
                      "reference": "Binary/PrescriptionDigest-200.086.824.605.539.20"
                    }
                  ]
                }
              ]
            }
          },
          {
            "fullUrl": "https://erp.zentral.erp.splitdns.ti-dienste.de/Device/1",
            "resource": {
              "resourceType": "Device",
              "id": "1",
              "meta": {
                "profile": [
                  "https://gematik.de/fhir/erp/StructureDefinition/GEM_ERP_PR_Device|1.2"
                ]
              },
              "status": "active",
              "serialNumber": "1.4.0",
              "deviceName": [
                {
                  "name": "E-Rezept-Fachdienst",
                  "type": "user-friendly-name"
                }
              ],
              "version": [
                {
                  "value": "1.4.0"
                }
              ],
              "contact": [
                {
                  "system": "email",
                  "value": "betrieb@gematik.de"
                }
              ]
            }
          },
          {
            "fullUrl": "https://erp.zentral.erp.splitdns.ti-dienste.de/Binary/PrescriptionDigest-200.086.824.605.539.20",
            "resource": {
              "resourceType": "Binary",
              "id": "PrescriptionDigest-200.086.824.605.539.20",
              "meta": {
                "profile": [
                  "https://gematik.de/fhir/erp/StructureDefinition/GEM_ERP_PR_Digest|1.2"
                ]
              },
              "contentType": "application/octet-stream",
              "data": "tJg8c5ZtdhzEEhJ0ZpAsUVFx5dKuYgQFs5oKgthi17M="
            }
          }
        ],
        "signature": {
          "type": [
            {
              "code": "1.2.840.10065.1.12.1.1",
              "system": "urn:iso-astm:E1762-95:2013"
            }
          ],
          "when": "2022-03-18T15:28:00+00:00",
          "who": {
            "reference": "https://erp.zentral.erp.splitdns.ti-dienste.de/Device/1"
          },
          "sigFormat": "application/pkcs7-mime",
          "data": "dGhpcyBibG9iIGlzIHNuaXBwZWQ="
        }
      }
    }
  ]
}