{"resourceType":"Bundle","id":"example-get-medication-list-bundle1","identifier":{"system":"urn:ietf:rfc:3986","value":"urn:uuid:9e1f5895-ab0b-4237-856d-fa1065631400"},"type":"searchset","timestamp":"2025-01-01T00:00:00Z","total":16,"link":[{"relation":"self","url":"http://epa4all/epa/medication/api/v1/fhir/$medication-list&date=le2025-12-24&date=ge2025-01-01&_count=10&_offset=0"},{"relation":"first","url":"http://epa4all/epa/medication/api/v1/fhir/$medication-list&date=le2025-12-24&date=ge2025-01-01&_count=10&_offset=0"},{"relation":"next","url":"http://epa4all/epa/medication/api/v1/fhir/$medication-list&date=le2025-12-24&date=ge2025-01-01&_count=10&_offset=10"},{"relation":"last","url":"http://epa4all/epa/medication/api/v1/fhir/$medication-list&date=le2025-12-24&date=ge2025-01-01&_count=10&_offset=10"}],"entry":[{"fullUrl":"http://epa4all/epa/medication/api/v1/fhir/Medication/2d5a0317-b2df-4d7b-ad72-07f5f66f9f12","resource":{"resourceType":"Medication","id":"2d5a0317-b2df-4d7b-ad72-07f5f66f9f12","meta":{"profile":["https://gematik.de/fhir/epa-medication/StructureDefinition/epa-medication"]},"extension":[{"url":"https://gematik.de/fhir/epa-medication/StructureDefinition/rx-prescription-process-identifier-extension","valueIdentifier":{"system":"https://gematik.de/fhir/epa-medication/sid/rx-prescription-process-identifier","value":"160.153.303.260.460_202508220"}}],"identifier":[{"system":"https://gematik.de/fhir/epa-medication/sid/epa-medication-unique-identifier","value":"48E951DFE10F5669D3C66D581E5767DE32CFD788C94693E5C78193DB2D3F095B"},{"system":"https://gematik.de/fhir/epa-medication/sid/rx-originator-process-identifier","value":"5a2a0f6c-b1d9-46b9-b377-c61586d1aa1e_160.153.303.260.460"}],"code":{"coding":[{"system":"http://fhir.de/CodeSystem/ifa/pzn","code":"03953522","display":"Metoprolol-ratiopharm® 100 mg Tabletten"},{"system":"http://snomed.info/sct","code":"7092007","display":"Product containing metoprolol (medicinal product)"},{"system":"http://fhir.de/CodeSystem/bfarm/atc","version":"2022","code":"C07AB02","display":"Metoprolol"}]},"status":"active","form":{"coding":[{"system":"https://fhir.kbv.de/CodeSystem/KBV_CS_SFHIR_KBV_DARREICHUNGSFORM","version":"1.10","code":"TAB","display":"Tabletten"},{"system":"http://snomed.info/sct","code":"385055001","display":"Tablet (basic dose form)"},{"system":"http://standardterms.edqm.eu","code":"12200","display":"Tablet"}]},"amount":{"numerator":{"value":100,"unit":"MilliGram","system":"http://unitsofmeasure.org","code":"mg"},"denominator":{"value":1,"unit":"Tablet","system":"http://unitsofmeasure.org","code":"{Tablet}"}}}},{"fullUrl":"http://epa4all/epa/medication/api/v1/fhir/MedicationRequest/ebdd8651-3971-4ecc-b651-8e54083b0339","resource":{"resourceType":"MedicationRequest","id":"ebdd8651-3971-4ecc-b651-8e54083b0339","meta":{"profile":["https://gematik.de/fhir/epa-medication/StructureDefinition/epa-medication-request"]},"extension":[{"extension":[{"url":"indicator","valueBoolean":false}],"url":"https://gematik.de/fhir/epa-medication/StructureDefinition/multiple-prescription-extension"}],"identifier":[{"system":"https://gematik.de/fhir/epa-medication/sid/rx-prescription-process-identifier","value":"160.153.303.257.459_20250122"},{"system":"https://gematik.de/fhir/epa-medication/sid/rx-originator-process-identifier","value":"6ae6a7ca-c9b5-46bf-9411-2ba49d96f988_160.153.303.257.459"}],"status":"completed","intent":"order","medicationReference":{"reference":"Medication/2d5a0317-b2df-4d7b-ad72-07f5f66f9f12"},"subject":{"identifier":{"system":"http://fhir.de/sid/gkv/kvid-10","value":"X110411319"}},"authoredOn":"2025-08-22","requester":{"reference":"Practitioner/498c345f-31f5-4da6-9f04-00fa2bc8af7c"},"dosageInstruction":[{"text":"1-1-1-0"}],"dispenseRequest":{"quantity":{"value":1,"system":"http://unitsofmeasure.org","code":"{Package}"}},"substitution":{"allowedBoolean":false}}},{"fullUrl":"http://epa4all/epa/medication/api/v1/fhir/MedicationDispense/158311c5-c2da-4e2a-ac0b-0d54c9fe419c","resource":{"resourceType":"MedicationDispense","id":"158311c5-c2da-4e2a-ac0b-0d54c9fe419c","meta":{"profile":["https://gematik.de/fhir/epa-medication/StructureDefinition/epa-medication-dispense"]},"extension":[{"url":"https://gematik.de/fhir/epa-medication/StructureDefinition/rx-prescription-process-identifier-extension","valueIdentifier":{"system":"https://gematik.de/fhir/epa-medication/sid/rx-prescription-process-identifier","value":"160.153.303.260.460_202508220"}}],"identifier":[{"system":"https://gematik.de/fhir/epa-medication/sid/rx-originator-process-identifier","value":"014e141a-df43-447c-927e-9d83ef7eddb3_160.153.303.260.460"}],"status":"completed","medicationReference":{"reference":"Medication/2d5a0317-b2df-4d7b-ad72-07f5f66f9f12"},"subject":{"identifier":{"system":"http://fhir.de/sid/gkv/kvid-10","value":"X110411319"}},"performer":[{"actor":{"reference":"Organization/151f1697-7512-4e21-9466-1b75207475d8"}}],"whenHandedOver":"2025-08-22","dosageInstruction":[{"text":"1-0-0-0"}],"substitution":{"wasSubstituted":false}}},{"fullUrl":"http://epa4all/epa/medication/api/v1/fhir/PractitionerRole/73a551f8-d8cd-4b44-823d-ab5f8aeab1aa","resource":{"resourceType":"PractitionerRole","id":"73a551f8-d8cd-4b44-823d-ab5f8aeab1aa","practitioner":{"reference":"Practitioner/498c345f-31f5-4da6-9f04-00fa2bc8af7c","identifier":{"type":{"coding":[{"system":"http://terminology.hl7.org/CodeSystem/v2-0203","version":"2.9.0","code":"PRN","display":"Provider number"}]},"system":"https://gematik.de/fhir/sid/telematik-id","value":"1-1.58.00000040"}},"organization":{"reference":"Organization/be51e0d2-783d-4e21-b16b-1a4cd7403515","identifier":{"type":{"coding":[{"system":"http://terminology.hl7.org/CodeSystem/v2-0203","version":"2.9.0","code":"PRN","display":"Provider number"}]},"system":"https://gematik.de/fhir/sid/telematik-id","value":"9-2.58.00000040"}}}},{"fullUrl":"http://epa4all/epa/medication/api/v1/fhir/Organization/be51e0d2-783d-4e21-b16b-1a4cd7403515","resource":{"resourceType":"Organization","id":"be51e0d2-783d-4e21-b16b-1a4cd7403515","meta":{"profile":["https://gematik.de/fhir/directory/StructureDefinition/OrganizationDirectory"],"tag":[{"system":"https://gematik.de/fhir/directory/CodeSystem/Origin","code":"ldap"}]},"identifier":[{"system":"https://gematik.de/fhir/sid/telematik-id","value":"9-2.58.00000040"}],"active":true,"type":[{"coding":[{"system":"https://gematik.de/fhir/directory/CodeSystem/OrganizationProfessionOID","code":"1.2.276.0.76.4.58","display":"Betriebsstätte gematik"}]}],"name":"gematik GmbH","alias":["gematik"],"address":[{"text":"gematik GmbH\nFriedrichstr. 136,\n10117 Berlin","line":["Friedrichstr. 136"],"city":"Berlin","district":"Mitte","state":"Berlin","postalCode":"10117","country":"DE"}],"contact":[{"purpose":{"coding":[{"system":"http://terminology.hl7.org/CodeSystem/contactentity-type","code":"ADMIN"}]},"name":{"text":"gematik ITSM"},"telecom":[{"system":"email","value":"betrieb@gematik.de"}]}]}},{"fullUrl":"http://epa4all/epa/medication/api/v1/fhir/Practitioner/498c345f-31f5-4da6-9f04-00fa2bc8af7c","resource":{"resourceType":"Practitioner","id":"498c345f-31f5-4da6-9f04-00fa2bc8af7c","meta":{"profile":["https://gematik.de/fhir/directory/StructureDefinition/PractitionerDirectory"],"tag":[{"system":"https://gematik.de/fhir/directory/CodeSystem/Origin","code":"ldap"}]},"identifier":[{"system":"https://gematik.de/fhir/sid/telematik-id","value":"1-1.58.00000040"},{"system":"https://fhir.kbv.de/NamingSystem/KBV_NS_Base_ANR","value":"123456789"}],"active":true,"name":[{"text":"Dr. Max Manfred Mustermann","family":"Musterman","given":["Max","Manfred"],"prefix":["Dr."]}],"qualification":[{"code":{"coding":[{"system":"https://gematik.de/fhir/directory/CodeSystem/PractitionerProfessionOID","code":"1.2.276.0.76.4.31"}]}},{"code":{"coding":[{"system":"urn:oid:1.2.276.0.76.5.514","code":"011001","display":"FA Allgemeinmedizin"}]}},{"code":{"coding":[{"system":"urn:oid:1.2.276.0.76.5.514","code":"141104","display":"FA Innere Medizin und Schwerpunkt Gastroenterologie"}]}}]}},{"fullUrl":"http://epa4all/epa/medication/api/v1/fhir/Organization/151f1697-7512-4e21-9466-1b75207475d8","resource":{"resourceType":"Organization","id":"151f1697-7512-4e21-9466-1b75207475d8","meta":{"profile":["https://gematik.de/fhir/directory/StructureDefinition/OrganizationDirectory"],"tag":[{"system":"https://gematik.de/fhir/directory/CodeSystem/Origin","code":"ldap"}]},"identifier":[{"system":"https://gematik.de/fhir/sid/telematik-id","value":"9-2.58.00000040"}],"active":true,"type":[{"coding":[{"system":"https://gematik.de/fhir/directory/CodeSystem/OrganizationProfessionOID","code":"1.2.276.0.76.4.54","display":"Öffentliche Apotheke"}]}],"name":"gematik Apotheke","alias":["Apotheke"],"address":[{"text":"gematik Apotheke\nFriedrichstr. 136,\n10117 Berlin","line":["Friedrichstr. 136"],"city":"Berlin","district":"Mitte","state":"Berlin","postalCode":"10117","country":"DE"}],"contact":[{"purpose":{"coding":[{"system":"http://terminology.hl7.org/CodeSystem/contactentity-type","code":"ADMIN"}]},"name":{"text":"gematik ITSM"},"telecom":[{"system":"email","value":"betrieb@gematik.de"}]}]}}]}