<Bundle xmlns="http://hl7.org/fhir">
    <id value="a0e0f861-0000-0000-0003-000000000000"/>
    <meta>
        <profile value="https://gematik.de/fhir/erp/StructureDefinition/GEM_ERP_PR_Bundle|1.2"/>
    </meta>
    <identifier>
        <system value="https://gematik.de/fhir/erp/NamingSystem/GEM_ERP_NS_PrescriptionId"/>
        <value value="160.000.006.420.704.11"/>
    </identifier>
    <type value="document"/>
    <timestamp value="2023-11-27T07:26:59.219+00:00"/>
    <link>
        <relation value="self"/>
        <url value="https://erp-test.zentral.erp.splitdns.ti-dienste.de/Task/160.000.006.420.704.11/$close/"/>
    </link>
    <entry>
        <fullUrl value="urn:uuid:02b660e6-0ef1-496d-801c-3485126665a7"/>
        <resource>
            <Composition xmlns="http://hl7.org/fhir">
                <meta>
                    <profile value="https://gematik.de/fhir/erp/StructureDefinition/GEM_ERP_PR_Composition|1.2"/>
                </meta>
                <extension url="https://gematik.de/fhir/erp/StructureDefinition/GEM_ERP_EX_Beneficiary">
                    <valueIdentifier>
                        <system value="https://gematik.de/fhir/sid/telematik-id"/>
                        <value value="3-SMC-B-Testkarte-883110000116873"/>
                    </valueIdentifier>
                </extension>
                <status value="final"/>
                <type>
                    <coding>
                        <system value="https://gematik.de/fhir/erp/CodeSystem/GEM_ERP_CS_DocumentType"/>
                        <code value="3"/>
                        <display value="Receipt"/>
                    </coding>
                </type>
                <date value="2023-11-27T07:26:59.217+00:00"/>
                <author>
                    <reference value="urn:uuid:87496b7c-e626-4578-b3d0-cc6ef2a417fb"/>
                </author>
                <title value="Quittung"/>
                <event>
                    <period>
                        <start value="2023-11-27T07:26:57.677+00:00"/>
                        <end value="2023-11-27T07:26:59.217+00:00"/>
                    </period>
                </event>
                <section>
                    <entry>
                        <reference value="urn:uuid:0b3c098a-5177-4d64-bca2-1f36e2f3d32f"/>
                    </entry>
                </section>
            </Composition>
        </resource>
    </entry>
    <entry>
        <fullUrl value="urn:uuid:87496b7c-e626-4578-b3d0-cc6ef2a417fb"/>
        <resource>
            <Device xmlns="http://hl7.org/fhir">
                <id value="1"/>
                <meta>
                    <profile value="https://gematik.de/fhir/erp/StructureDefinition/GEM_ERP_PR_Device|1.2"/>
                </meta>
                <status value="active"/>
                <deviceName>
                    <name value="E-Rezept Fachdienst"/>
                    <type value="user-friendly-name"/>
                </deviceName>
                <version>
                    <value value="1.12.0"/>
                </version>
                <contact>
                    <system value="email"/>
                    <value value="betrieb@gematik.de"/>
                </contact>
            </Device>
        </resource>
    </entry>
    <entry>
        <fullUrl value="urn:uuid:0b3c098a-5177-4d64-bca2-1f36e2f3d32f"/>
        <resource>
            <Binary xmlns="http://hl7.org/fhir">
                <id value="0b3c098a-5177-4d64-bca2-1f36e2f3d32f"/>
                <meta>
                    <profile value="https://gematik.de/fhir/erp/StructureDefinition/GEM_ERP_PR_Digest|1.2"/>
                </meta>
                <contentType value="application/octet-stream"/>
                <data value="EH+F6h+DImWpnFB7qzFZw8yjTNIvYhFAinYfmsmXq7Q="/>
            </Binary>
        </resource>
    </entry>
    <signature>
        <type>
            <system value="urn:iso-astm:E1762-95:2013"/>
            <code value="1.2.840.10065.1.12.1.1"/>
        </type>
        <when value="2023-11-27T07:26:59.221+00:00"/>
        <who>
            <reference value="urn:uuid:87496b7c-e626-4578-b3d0-cc6ef2a417fb"/>
        </who>
        <sigFormat value="application/pkcs7-mime"/>
        <data value="MIIUoAYJKoZIhvcNAQcCoIIUkTCC"/>
    </signature>
</Bundle>