<Bundle xmlns="http://hl7.org/fhir">
    <id value="a01a0f39-0400-0000-0003-000000000000"/>
    <meta>
        <profile value="https://gematik.de/fhir/erp/StructureDefinition/GEM_ERP_PR_Bundle|1.2"/>
    </meta>
    <identifier>
        <system value="https://gematik.de/fhir/erp/NamingSystem/GEM_ERP_NS_PrescriptionId"/>
        <value value="160.000.070.848.282.59"/>
    </identifier>
    <type value="document"/>
    <timestamp value="2024-01-31T11:31:00.832+00:00"/>
    <link>
        <relation value="self"/>
        <url value="https://erp-dev.zentral.erp.splitdns.ti-dienste.de/Task/160.000.070.848.282.59/$close/"/>
    </link>
    <entry>
        <fullUrl value="urn:uuid:89f83e23-b6ba-4d36-be13-a9d520e3980c"/>
        <resource>
            <Composition xmlns="http://hl7.org/fhir">
                <meta>
                    <profile value="https://gematik.de/fhir/erp/StructureDefinition/GEM_ERP_PR_Composition|1.2"/>
                </meta>
                <extension url="https://gematik.de/fhir/erp/StructureDefinition/GEM_ERP_EX_Beneficiary">
                    <valueIdentifier>
                        <system value="https://gematik.de/fhir/sid/telematik-id"/>
                        <value value="3-SMC-B-Testkarte-883110000116873"/>
                    </valueIdentifier>
                </extension>
                <status value="final"/>
                <type>
                    <coding>
                        <system value="https://gematik.de/fhir/erp/CodeSystem/GEM_ERP_CS_DocumentType"/>
                        <code value="3"/>
                        <display value="Receipt"/>
                    </coding>
                </type>
                <date value="2024-01-31T11:31:00.831+00:00"/>
                <author>
                    <reference value="https://erp-dev.zentral.erp.splitdns.ti-dienste.de/Device/1"/>
                </author>
                <title value="Quittung"/>
                <event>
                    <period>
                        <start value="2024-01-31T11:30:59.119+00:00"/>
                        <end value="2024-01-31T11:31:00.831+00:00"/>
                    </period>
                </event>
                <section>
                    <entry>
                        <reference value="urn:uuid:d0f270e5-8952-4a70-905b-dde40f228634"/>
                    </entry>
                </section>
            </Composition>
        </resource>
    </entry>
    <entry>
        <fullUrl value="https://erp-dev.zentral.erp.splitdns.ti-dienste.de/Device/1"/>
        <resource>
            <Device xmlns="http://hl7.org/fhir">
                <id value="1"/>
                <meta>
                    <profile value="https://gematik.de/fhir/erp/StructureDefinition/GEM_ERP_PR_Device|1.2"/>
                </meta>
                <status value="active"/>
                <serialNumber value="1.13.0"/>
                <deviceName>
                    <name value="E-Rezept Fachdienst"/>
                    <type value="user-friendly-name"/>
                </deviceName>
                <version>
                    <value value="1.13.0"/>
                </version>
                <contact>
                    <system value="email"/>
                    <value value="betrieb@gematik.de"/>
                </contact>
            </Device>
        </resource>
    </entry>
    <entry>
        <fullUrl value="urn:uuid:d0f270e5-8952-4a70-905b-dde40f228634"/>
        <resource>
            <Binary xmlns="http://hl7.org/fhir">
                <meta>
                    <profile value="https://gematik.de/fhir/erp/StructureDefinition/GEM_ERP_PR_Digest|1.2"/>
                </meta>
                <contentType value="application/octet-stream"/>
                <data value="eNMcZvslUsx75vwaQd4McWdHcfjHELsX/y02wsbRjlo="/>
            </Binary>
        </resource>
    </entry>
    <signature>
        <type>
            <system value="urn:iso-astm:E1762-95:2013"/>
            <code value="1.2.840.10065.1.12.1.1"/>
        </type>
        <when value="2024-01-31T11:31:00.833+00:00"/>
        <who>
            <reference value="https://erp-dev.zentral.erp.splitdns.ti-dienste.de/Device/1"/>
        </who>
        <sigFormat value="application/pkcs7-mime"/>
        <data value=""/>
    </signature>
</Bundle>