{
  "meta": {
    "profile": [
      "https://gematik.de/fhir/epa-medication/StructureDefinition/epa-op-provide-prescription-erp-input-parameters|1.0.3"
    ]
  },
  "resourceType": "Parameters",
  "id": "1e7f24bf-eff0-4353-8799-a5741e4c3b2b",
  "parameter": [
    {
      "name": "rxPrescription",
      "part": [
        {
          "name": "prescriptionId",
          "valueIdentifier": {
            "system": "https://gematik.de/fhir/erp/NamingSystem/GEM_ERP_NS_PrescriptionId",
            "value": "160.000.106.856.581.85"
          }
        },
        {
          "name": "authoredOn",
          "valueDate": "2025-01-24"
        },
        {
          "name": "medicationRequest",
          "resource": {
            "resourceType": "MedicationRequest",
            "id": "05397853-7d7a-4970-b751-0b6658cc8e67",
            "meta": {
              "profile": [
                "https://gematik.de/fhir/epa-medication/StructureDefinition/epa-medication-request|1.0.3"
              ]
            },
            "extension": [
              {
                "url": "https://gematik.de/fhir/epa-medication/StructureDefinition/multiple-prescription-extension",
                "extension": [
                  {
                    "url": "indicator",
                    "valueBoolean": false
                  }
                ]
              }
            ],
            "status": "active",
            "intent": "filler-order",
            "medicationReference": {
              "reference": "Medication/65a4ba7d-cc76-499c-8b9f-08eb658f5aa7"
            },
            "subject": {
              "identifier": {
                "system": "http://fhir.de/sid/gkv/kvid-10",
                "value": "X110645443"
              }
            },
            "authoredOn": "2025-01-24",
            "dosageInstruction": [
              {
                "patientInstruction": "2-3-1-0-2-0"
              }
            ],
            "dispenseRequest": {
              "quantity": {
                "value": 9,
                "system": "http://unitsofmeasure.org",
                "code": "{Package}"
              }
            },
            "substitution": {
              "allowedBoolean": true
            }
          }
        },
        {
          "name": "medication",
          "resource": {
            "resourceType": "Medication",
            "id": "65a4ba7d-cc76-499c-8b9f-08eb658f5aa7",
            "meta": {
              "profile": [
                "https://gematik.de/fhir/epa-medication/StructureDefinition/epa-medication|1.0.3"
              ]
            },
            "extension": [
              {
                "url": "https://gematik.de/fhir/epa-medication/StructureDefinition/medication-manufacturing-instructions-extension",
                "valueString": "freitext"
              },
              {
                "url": "https://gematik.de/fhir/epa-medication/StructureDefinition/drug-category-extension",
                "valueCoding": {
                  "system": "https://gematik.de/fhir/epa-medication/CodeSystem/epa-drug-category-cs",
                  "code": "00"
                }
              },
              {
                "url": "https://gematik.de/fhir/epa-medication/StructureDefinition/medication-id-vaccine-extension",
                "valueBoolean": false
              }
            ],
            "form": {
              "text": "Zäpfchen, viel Spaß"
            },
            "amount": {
              "numerator": {
                "extension": [
                  {
                    "url": "https://gematik.de/fhir/epa-medication/StructureDefinition/medication-total-quantity-formulation-extension",
                    "valueString": "5"
                  }
                ],
                "unit": "Stk"
              },
              "denominator": {
                "value": 1
              }
            },
            "ingredient": [
              {
                "strength": {
                  "extension": [
                    {
                      "url": "https://gematik.de/fhir/epa-medication/StructureDefinition/medication-ingredient-amount-extension",
                      "valueString": "freitextPzn"
                    }
                  ],
                  "numerator": {
                    "_value": {
                      "extension": [
                        {
                          "url": "http://hl7.org/fhir/StructureDefinition/data-absent-reason",
                          "valueCode": "unknown"
                        }
                      ]
                    },
                    "_system": {
                      "extension": [
                        {
                          "url": "http://hl7.org/fhir/StructureDefinition/data-absent-reason",
                          "valueCode": "unknown"
                        }
                      ]
                    },
                    "_code": {
                      "extension": [
                        {
                          "url": "http://hl7.org/fhir/StructureDefinition/data-absent-reason",
                          "valueCode": "unknown"
                        }
                      ]
                    }
                  },
                  "denominator": {
                    "_value": {
                      "extension": [
                        {
                          "url": "http://hl7.org/fhir/StructureDefinition/data-absent-reason",
                          "valueCode": "unknown"
                        }
                      ]
                    },
                    "_system": {
                      "extension": [
                        {
                          "url": "http://hl7.org/fhir/StructureDefinition/data-absent-reason",
                          "valueCode": "unknown"
                        }
                      ]
                    },
                    "_code": {
                      "extension": [
                        {
                          "url": "http://hl7.org/fhir/StructureDefinition/data-absent-reason",
                          "valueCode": "unknown"
                        }
                      ]
                    }
                  }
                },
                "itemReference": {
                  "reference": "#4d64ae5c-2175-47c4-8c64-780bbe9c2479"
                }
              }
            ],
            "contained": [
              {
                "meta": {
                  "profile": [
                    "https://gematik.de/fhir/epa-medication/StructureDefinition/epa-medication-pzn-ingredient|1.0.3"
                  ]
                },
                "resourceType": "Medication",
                "id": "4d64ae5c-2175-47c4-8c64-780bbe9c2479",
                "extension": [
                  {
                    "url": "https://gematik.de/fhir/epa-medication/StructureDefinition/epa-medication-type-extension",
                    "valueCoding": {
                      "system": "http://snomed.info/sct",
                      "code": "781405001",
                      "display": "Medicinal product package (product)"
                    }
                  }
                ],
                "code": {
                  "coding": [
                    {
                      "system": "http://fhir.de/CodeSystem/ifa/pzn",
                      "code": "41063001",
                      "display": "Vertigoheel® 20 mg"
                    }
                  ],
                  "text": "Vertigoheel® 20 mg"
                }
              }
            ]
          }
        },
        {
          "name": "organization",
          "resource": {
            "resourceType": "Organization",
            "id": "c9cd9f5e-376a-4222-bfb7-a7dbb2b6b6d4",
            "meta": {
              "profile": [
                "https://gematik.de/fhir/directory/StructureDefinition/OrganizationDirectory|0.11.12"
              ],
              "tag": [
                {
                  "system": "https://gematik.de/fhir/directory/CodeSystem/Origin",
                  "code": "ldap"
                }
              ]
            },
            "identifier": [
              {
                "type": {
                  "coding": [
                    {
                      "system": "http://terminology.hl7.org/CodeSystem/v2-0203",
                      "code": "BSNR"
                    }
                  ]
                },
                "system": "https://fhir.kbv.de/NamingSystem/KBV_NS_Base_BSNR",
                "value": "170672847"
              },
              {
                "system": "https://gematik.de/fhir/sid/telematik-id",
                "value": "1-2-ARZTPRAXIS-BerndRosenstrauch01"
              }
            ],
            "name": "Arztpraxis Bernd Rosenstrauch TEST-ONLY",
            "telecom": [
              {
                "system": "phone",
                "value": "+49-688-1953048"
              },
              {
                "system": "email",
                "value": "brian.klose@kahlmeyer.name"
              }
            ],
            "address": [
              {
                "type": "both",
                "line": [
                  "Eulenkamp 16"
                ],
                "city": "Bad Jannek",
                "postalCode": "87527",
                "country": "D"
              }
            ],
            "type": [
              {
                "coding": [
                  {
                    "system": "https://gematik.de/fhir/directory/CodeSystem/OrganizationProfessionOID",
                    "code": "1.2.276.0.76.4.50"
                  }
                ]
              }
            ]
          }
        },
        {
          "name": "practitioner",
          "resource": {
            "resourceType": "Practitioner",
            "id": "6956d9f3-561c-4489-8db1-77fe187fadce",
            "meta": {
              "profile": [
                "https://gematik.de/fhir/directory/StructureDefinition/PractitionerDirectory|0.11.12"
              ],
              "tag": [
                {
                  "system": "https://gematik.de/fhir/directory/CodeSystem/Origin",
                  "code": "ldap"
                }
              ]
            },
            "identifier": [
              {
                "type": {
                  "coding": [
                    {
                      "system": "http://terminology.hl7.org/CodeSystem/v2-0203",
                      "code": "LANR"
                    }
                  ]
                },
                "system": "https://fhir.kbv.de/NamingSystem/KBV_NS_Base_ANR",
                "value": "195508890"
              },
              {
                "system": "https://gematik.de/fhir/sid/telematik-id",
                "value": "1-HBA-Testkarte-883110000161759"
              }
            ],
            "name": [
              {
                "use": "official",
                "family": "Gunther",
                "given": [
                  "Gündüla"
                ],
                "prefix": [
                  "Dr."
                ],
                "text": "AC Dr. Gündüla Gunther"
              }
            ],
            "qualification": [
              {
                "code": {
                  "coding": [
                    {
                      "system": "https://fhir.kbv.de/CodeSystem/KBV_CS_FOR_Qualification_Type",
                      "code": "00"
                    }
                  ]
                }
              },
              {
                "code": {
                  "coding": [
                    {
                      "system": "https://fhir.kbv.de/CodeSystem/KBV_CS_FOR_Berufsbezeichnung",
                      "code": "Berufsbezeichnung"
                    }
                  ],
                  "text": "Super-Facharzt für alles Mögliche"
                }
              }
            ]
          }
        }
      ]
    }
  ]
}