<Bundle xmlns="http://hl7.org/fhir">
  <id value="d95b3ece-cdd7-439d-a062-17bdc2253962"/>
  <type value="collection"/>
  <timestamp value="2023-01-25T16:23:28.424+00:00"/>
  <link>
    <relation value="self"/>
    <url value="https://erp-dev.zentral.erp.splitdns.ti-dienste.de/Task/160.000.031.325.889.64"/>
  </link>
  <entry>
    <fullUrl value="https://erp-dev.zentral.erp.splitdns.ti-dienste.de/Task/160.000.031.325.889.64"/>
    <resource>
      <Task xmlns="http://hl7.org/fhir">
        <id value="160.000.031.325.889.64"/>
        <meta>
          <profile value="https://gematik.de/fhir/erp/StructureDefinition/GEM_ERP_PR_Task|1.2"/>
        </meta>
        <extension url="https://gematik.de/fhir/erp/StructureDefinition/GEM_ERP_EX_PrescriptionType">
          <valueCoding>
            <system value="https://gematik.de/fhir/erp/CodeSystem/GEM_ERP_CS_FlowType"/>
            <code value="160"/>
            <display value="Muster 16 (Apothekenpflichtige Arzneimittel)"/>
          </valueCoding>
        </extension>
        <extension url="https://gematik.de/fhir/erp/StructureDefinition/GEM_ERP_EX_ExpiryDate">
          <valueDate value="2023-04-25"/>
        </extension>
        <extension url="https://gematik.de/fhir/erp/StructureDefinition/GEM_ERP_EX_AcceptDate">
          <valueDate value="2023-02-22"/>
        </extension>
        <identifier>
          <use value="official"/>
          <system value="https://gematik.de/fhir/erp/NamingSystem/GEM_ERP_NS_PrescriptionId"/>
          <value value="160.000.031.325.889.64"/>
        </identifier>
        <identifier>
          <use value="official"/>
          <system value="https://gematik.de/fhir/erp/NamingSystem/GEM_ERP_NS_Secret"/>
          <value value="adc983d6d69a739228747d3150fe60017510d5cb677c053b310054f57f0428fb"/>
        </identifier>
        <status value="completed"/>
        <intent value="order"/>
        <for>
          <identifier>
            <system value="http://fhir.de/sid/gkv/kvid-10"/>
            <value value="X110498565"/>
          </identifier>
        </for>
        <authoredOn value="2023-01-25T16:23:27.406+00:00"/>
        <lastModified value="2023-01-25T16:23:28.293+00:00"/>
        <performerType>
          <coding>
            <system value="https://gematik.de/fhir/erp/CodeSystem/GEM_ERP_CS_OrganizationType"/>
            <code value="urn:oid:1.2.276.0.76.4.54"/>
            <display value="Öffentliche Apotheke"/>
          </coding>
          <text value="Öffentliche Apotheke"/>
        </performerType>
        <output>
          <type>
            <coding>
              <system value="https://gematik.de/fhir/erp/CodeSystem/GEM_ERP_CS_DocumentType"/>
              <code value="3"/>
            </coding>
          </type>
          <valueReference>
            <reference value="Bundle/a0c1fedd-0100-0000-0003-000000000000"/>
          </valueReference>
        </output>
      </Task>
    </resource>
  </entry>
  <entry>
    <fullUrl value="urn:uuid:a0c1fedd-0100-0000-0003-000000000000"/>
    <resource>
      <Bundle xmlns="http://hl7.org/fhir">
        <id value="a0c1fedd-0100-0000-0003-000000000000"/>
        <meta>
          <profile value="https://gematik.de/fhir/erp/StructureDefinition/GEM_ERP_PR_Bundle|1.2"/>
        </meta>
        <identifier>
          <system value="https://gematik.de/fhir/erp/NamingSystem/GEM_ERP_NS_PrescriptionId"/>
          <value value="160.000.031.325.889.64"/>
        </identifier>
        <type value="document"/>
        <timestamp value="2023-01-25T16:23:28.281+00:00"/>
        <link>
          <relation value="self"/>
          <url value="https://erp-dev.zentral.erp.splitdns.ti-dienste.de/Task/160.000.031.325.889.64/$close/"/>
        </link>
        <entry>
          <fullUrl value="urn:uuid:8923675b-9153-405c-92cf-0eff5938f365"/>
          <resource>
            <Composition xmlns="http://hl7.org/fhir">
              <id value="8923675b-9153-405c-92cf-0eff5938f365"/>
              <meta>
                <profile value="https://gematik.de/fhir/erp/StructureDefinition/GEM_ERP_PR_Composition|1.2"/>
              </meta>
              <extension url="https://gematik.de/fhir/erp/StructureDefinition/GEM_ERP_EX_Beneficiary">
                <valueIdentifier>
                  <system value="https://gematik.de/fhir/sid/telematik-id"/>
                  <value value="3-SMC-B-Testkarte-883110000116873"/>
                </valueIdentifier>
              </extension>
              <status value="final"/>
              <type>
                <coding>
                  <system value="https://gematik.de/fhir/erp/CodeSystem/GEM_ERP_CS_DocumentType"/>
                  <code value="3"/>
                  <display value="Receipt"/>
                </coding>
              </type>
              <date value="2023-01-25T16:23:28.281+00:00"/>
              <author>
                <reference value="https://erp-dev.zentral.erp.splitdns.ti-dienste.de/Device/1"/>
              </author>
              <title value="Quittung"/>
              <event>
                <period>
                  <start value="2023-01-25T16:23:28.081+00:00"/>
                  <end value="2023-01-25T16:23:28.281+00:00"/>
                </period>
              </event>
              <section>
                <entry>
                  <reference value="Binary/PrescriptionDigest-160.000.031.325.889.64"/>
                </entry>
              </section>
            </Composition>
          </resource>
        </entry>
        <entry>
          <fullUrl value="https://erp-dev.zentral.erp.splitdns.ti-dienste.de/Device/1"/>
          <resource>
            <Device xmlns="http://hl7.org/fhir">
              <id value="1"/>
              <meta>
                <profile value="https://gematik.de/fhir/erp/StructureDefinition/GEM_ERP_PR_Device|1.2"/>
              </meta>
              <status value="active"/>
              <serialNumber value="1.9.0"/>
              <deviceName>
                <name value="E-Rezept Fachdienst"/>
                <type value="user-friendly-name"/>
              </deviceName>
              <version>
                <value value="1.9.0"/>
              </version>
              <contact>
                <system value="email"/>
                <value value="betrieb@gematik.de"/>
              </contact>
            </Device>
          </resource>
        </entry>
        <entry>
          <fullUrl value="https://erp-dev.zentral.erp.splitdns.ti-dienste.de/Binary/PrescriptionDigest-160.000.031.325.889.64"/>
          <resource>
            <Binary xmlns="http://hl7.org/fhir">
              <id value="PrescriptionDigest-160.000.031.325.889.64"/>
              <meta>
                <versionId value="1"/>
                <profile value="https://gematik.de/fhir/erp/StructureDefinition/GEM_ERP_PR_Digest|1.2"/>
              </meta>
              <contentType value="application/octet-stream"/>
              <data value="GCuwZqBnVZUBOmdzwasN6tRC5nmIwWMXJ6L4YcpvjxI="/>
            </Binary>
          </resource>
        </entry>
        <signature>
          <type>
            <system value="urn:iso-astm:E1762-95:2013"/>
            <code value="1.2.840.10065.1.12.1.1"/>
          </type>
          <when value="2023-01-25T16:23:28.283+00:00"/>
          <who>
            <reference value="https://erp-dev.zentral.erp.splitdns.ti-dienste.de/Device/1"/>
          </who>
          <sigFormat value="application/pkcs7-mime"/>
          <data value=""/>
        </signature>
      </Bundle>
    </resource>
  </entry>
</Bundle>