<Bundle xmlns="http://hl7.org/fhir">
    <meta>
        <profile value="https://gematik.de/fhir/erp/StructureDefinition/GEM_ERP_PR_Bundle|1.2"/>
    </meta>
    <identifier>
        <system value="https://gematik.de/fhir/erp/NamingSystem/GEM_ERP_NS_PrescriptionId"/>
        <value value="160.000.006.708.177.19"/>
    </identifier>
    <type value="document"/>
    <timestamp value="2023-07-05T06:13:31.989+00:00"/>
    <link>
        <relation value="self"/>
        <url value="https://erp.zentral.erp.splitdns.ti-dienste.de/Task/160.000.006.708.177.19/$close/"/>
    </link>
    <entry>
        <fullUrl value="urn:uuid:6ab11fe0-2bc4-4dc7-93ff-fe2fb74f5bdd"/>
        <resource>
            <Composition xmlns="http://hl7.org/fhir">
                <id value="6ab11fe0-2bc4-4dc7-93ff-fe2fb74f5bdd"/>
                <meta>
                    <profile value="https://gematik.de/fhir/erp/StructureDefinition/GEM_ERP_PR_Composition|1.2"/>
                </meta>
                <extension url="https://gematik.de/fhir/erp/StructureDefinition/GEM_ERP_EX_Beneficiary">
                    <valueIdentifier>
                        <system value="https://gematik.de/fhir/sid/telematik-id"/>
                        <value value="3-09.2.0649000000.10.844"/>
                    </valueIdentifier>
                </extension>
                <status value="final"/>
                <type>
                    <coding>
                        <system value="https://gematik.de/fhir/erp/CodeSystem/GEM_ERP_CS_DocumentType"/>
                        <code value="3"/>
                        <display value="Receipt"/>
                    </coding>
                </type>
                <date value="2023-07-05T06:13:31.988+00:00"/>
                <author>
                    <reference value="https://erp.zentral.erp.splitdns.ti-dienste.de/Device/1"/>
                </author>
                <title value="Quittung"/>
                <event>
                    <period>
                        <start value="2023-07-04T13:47:26.777+00:00"/>
                        <end value="2023-07-05T06:13:31.988+00:00"/>
                    </period>
                </event>
                <section>
                    <entry>
                        <reference value="Binary/PrescriptionDigest-160.000.006.708.177.19"/>
                    </entry>
                </section>
            </Composition>
        </resource>
    </entry>
    <entry>
        <fullUrl value="https://erp.zentral.erp.splitdns.ti-dienste.de/Device/1"/>
        <resource>
            <Device xmlns="http://hl7.org/fhir">
                <id value="1"/>
                <meta>
                    <profile value="https://gematik.de/fhir/erp/StructureDefinition/GEM_ERP_PR_Device|1.2"/>
                </meta>
                <status value="active"/>
                <serialNumber value="1.10.0"/>
                <deviceName>
                    <name value="E-Rezept Fachdienst"/>
                    <type value="user-friendly-name"/>
                </deviceName>
                <version>
                    <value value="1.10.0"/>
                </version>
                <contact>
                    <system value="email"/>
                    <value value="betrieb@gematik.de"/>
                </contact>
            </Device>
        </resource>
    </entry>
    <entry>
        <fullUrl value="https://erp.zentral.erp.splitdns.ti-dienste.de/Binary/PrescriptionDigest-160.000.006.708.177.19"/>
        <resource>
            <Binary xmlns="http://hl7.org/fhir">
                <id value="PrescriptionDigest-160.000.006.708.177.19"/>
                <meta>
                    <versionId value="1"/>
                    <profile value="https://gematik.de/fhir/erp/StructureDefinition/GEM_ERP_PR_Digest|1.2"/>
                </meta>
                <contentType value="application/octet-stream"/>
                <data value="mAZdy9sNXqEJ7gA1ejuo97wdqp7ZIBy1/5L82Q74MB0="/>
            </Binary>
        </resource>
    </entry>
    <signature>
        <type>
            <system value="urn:iso-astm:E1762-95:2013"/>
            <code value="1.2.840.10065.1.12.1.1"/>
        </type>
        <when value="2023-07-05T06:13:31.991+00:00"/>
        <who>
            <reference value="https://erp.zentral.erp.splitdns.ti-dienste.de/Device/1"/>
        </who>
        <sigFormat value="application/pkcs7-mime"/>
        <data value=""/>
    </signature>
</Bundle>