{
  "id": "63488cc4-6766-466d-8d36-56df33402583",
  "type": "searchset",
  "timestamp": "2024-07-30T13:07:38.500+00:00",
  "resourceType": "Bundle",
  "total": 0,
  "entry": [
    {
      "fullUrl": "https://erp-dev.zentral.erp.splitdns.ti-dienste.de/MedicationDispense/160.000.099.531.112.75",
      "resource": {
        "resourceType": "MedicationDispense",
        "id": "160.000.099.531.112.75",
        "meta": {
          "profile": [
            "https://gematik.de/fhir/erp/StructureDefinition/GEM_ERP_PR_MedicationDispense|1.2"
          ]
        },
        "contained": [
          {
            "resourceType": "Medication",
            "id": "c8627bb5-16ca-41d8-b746-b69d545d0f93",
            "meta": {
              "profile": [
                "https://fhir.kbv.de/StructureDefinition/KBV_PR_ERP_Medication_PZN|1.1.0"
              ]
            },
            "extension": [
              {
                "url": "https://fhir.kbv.de/StructureDefinition/KBV_EX_Base_Medication_Type",
                "valueCodeableConcept": {
                  "coding": [
                    {
                      "system": "http://snomed.info/sct",
                      "version": "http://snomed.info/sct/900000000000207008/version/20220331",
                      "code": "763158003",
                      "display": "Medicinal product (product)"
                    }
                  ]
                }
              },
              {
                "url": "https://fhir.kbv.de/StructureDefinition/KBV_EX_ERP_Medication_Category",
                "valueCoding": {
                  "system": "https://fhir.kbv.de/CodeSystem/KBV_CS_ERP_Medication_Category",
                  "code": "00"
                }
              },
              {
                "url": "https://fhir.kbv.de/StructureDefinition/KBV_EX_ERP_Medication_Vaccine",
                "valueBoolean": false
              },
              {
                "url": "http://fhir.de/StructureDefinition/normgroesse",
                "valueCode": "NB"
              }
            ],
            "code": {
              "coding": [
                {
                  "system": "http://fhir.de/CodeSystem/ifa/pzn",
                  "code": "43328774"
                }
              ],
              "text": "Thomapyrin TENSION Honig 250 mg"
            },
            "form": {
              "coding": [
                {
                  "system": "https://fhir.kbv.de/CodeSystem/KBV_CS_SFHIR_KBV_DARREICHUNGSFORM",
                  "code": "VSU"
                }
              ]
            },
            "amount": {
              "numerator": {
                "extension": [
                  {
                    "url": "https://fhir.kbv.de/StructureDefinition/KBV_EX_ERP_Medication_PackagingSize",
                    "valueString": "11"
                  }
                ],
                "unit": "Stk"
              },
              "denominator": {
                "value": 1
              }
            }
          }
        ],
        "identifier": [
          {
            "system": "https://gematik.de/fhir/erp/NamingSystem/GEM_ERP_NS_PrescriptionId",
            "value": "160.000.099.531.112.75"
          }
        ],
        "status": "completed",
        "medicationReference": {
          "reference": "#c8627bb5-16ca-41d8-b746-b69d545d0f93"
        },
        "subject": {
          "identifier": {
            "system": "http://fhir.de/sid/gkv/kvid-10",
            "value": "X110499478"
          }
        },
        "performer": [
          {
            "actor": {
              "identifier": {
                "system": "https://gematik.de/fhir/sid/telematik-id",
                "value": "5-2-KH-APO-Waldesrand-01"
              }
            }
          }
        ],
        "whenPrepared": "2024-07-29",
        "whenHandedOver": "2024-07-30"
      },
      "search": {
        "mode": "match"
      }
    },
    {
      "fullUrl": "https://erp-dev.zentral.erp.splitdns.ti-dienste.de/MedicationDispense/160.000.099.531.111.78",
      "resource": {
        "resourceType": "MedicationDispense",
        "id": "160.000.099.531.111.78",
        "meta": {
          "profile": [
            "https://gematik.de/fhir/erp/StructureDefinition/GEM_ERP_PR_MedicationDispense|1.2"
          ]
        },
        "contained": [
          {
            "resourceType": "Medication",
            "id": "14084c60-87f9-4ae8-b2dc-9e4af1841666",
            "meta": {
              "profile": [
                "https://fhir.kbv.de/StructureDefinition/KBV_PR_ERP_Medication_PZN|1.1.0"
              ]
            },
            "extension": [
              {
                "url": "https://fhir.kbv.de/StructureDefinition/KBV_EX_Base_Medication_Type",
                "valueCodeableConcept": {
                  "coding": [
                    {
                      "system": "http://snomed.info/sct",
                      "version": "http://snomed.info/sct/900000000000207008/version/20220331",
                      "code": "763158003",
                      "display": "Medicinal product (product)"
                    }
                  ]
                }
              },
              {
                "url": "https://fhir.kbv.de/StructureDefinition/KBV_EX_ERP_Medication_Category",
                "valueCoding": {
                  "system": "https://fhir.kbv.de/CodeSystem/KBV_CS_ERP_Medication_Category",
                  "code": "00"
                }
              },
              {
                "url": "https://fhir.kbv.de/StructureDefinition/KBV_EX_ERP_Medication_Vaccine",
                "valueBoolean": false
              },
              {
                "url": "http://fhir.de/StructureDefinition/normgroesse",
                "valueCode": "NB"
              }
            ],
            "code": {
              "coding": [
                {
                  "system": "http://fhir.de/CodeSystem/ifa/pzn",
                  "code": "65534764"
                }
              ],
              "text": "RESTAXIL 50 mg"
            },
            "form": {
              "coding": [
                {
                  "system": "https://fhir.kbv.de/CodeSystem/KBV_CS_SFHIR_KBV_DARREICHUNGSFORM",
                  "code": "HKP"
                }
              ]
            },
            "amount": {
              "numerator": {
                "extension": [
                  {
                    "url": "https://fhir.kbv.de/StructureDefinition/KBV_EX_ERP_Medication_PackagingSize",
                    "valueString": "13"
                  }
                ],
                "unit": "Stk"
              },
              "denominator": {
                "value": 1
              }
            }
          }
        ],
        "identifier": [
          {
            "system": "https://gematik.de/fhir/erp/NamingSystem/GEM_ERP_NS_PrescriptionId",
            "value": "160.000.099.531.111.78"
          }
        ],
        "status": "completed",
        "medicationReference": {
          "reference": "#14084c60-87f9-4ae8-b2dc-9e4af1841666"
        },
        "subject": {
          "identifier": {
            "system": "http://fhir.de/sid/gkv/kvid-10",
            "value": "X110499478"
          }
        },
        "performer": [
          {
            "actor": {
              "identifier": {
                "system": "https://gematik.de/fhir/sid/telematik-id",
                "value": "5-2-KH-APO-Waldesrand-01"
              }
            }
          }
        ],
        "whenPrepared": "2024-07-29",
        "whenHandedOver": "2024-07-30"
      },
      "search": {
        "mode": "match"
      }
    },
    {
      "fullUrl": "https://erp-dev.zentral.erp.splitdns.ti-dienste.de/MedicationDispense/160.000.099.531.110.81",
      "resource": {
        "resourceType": "MedicationDispense",
        "id": "160.000.099.531.110.81",
        "meta": {
          "profile": [
            "https://gematik.de/fhir/erp/StructureDefinition/GEM_ERP_PR_MedicationDispense|1.2"
          ]
        },
        "contained": [
          {
            "resourceType": "Medication",
            "id": "9957e333-2eb8-4dc1-8d3a-c91442628a33",
            "meta": {
              "profile": [
                "https://fhir.kbv.de/StructureDefinition/KBV_PR_ERP_Medication_PZN|1.1.0"
              ]
            },
            "extension": [
              {
                "url": "https://fhir.kbv.de/StructureDefinition/KBV_EX_Base_Medication_Type",
                "valueCodeableConcept": {
                  "coding": [
                    {
                      "system": "http://snomed.info/sct",
                      "version": "http://snomed.info/sct/900000000000207008/version/20220331",
                      "code": "763158003",
                      "display": "Medicinal product (product)"
                    }
                  ]
                }
              },
              {
                "url": "https://fhir.kbv.de/StructureDefinition/KBV_EX_ERP_Medication_Category",
                "valueCoding": {
                  "system": "https://fhir.kbv.de/CodeSystem/KBV_CS_ERP_Medication_Category",
                  "code": "00"
                }
              },
              {
                "url": "https://fhir.kbv.de/StructureDefinition/KBV_EX_ERP_Medication_Vaccine",
                "valueBoolean": false
              },
              {
                "url": "http://fhir.de/StructureDefinition/normgroesse",
                "valueCode": "NB"
              }
            ],
            "code": {
              "coding": [
                {
                  "system": "http://fhir.de/CodeSystem/ifa/pzn",
                  "code": "34811046"
                }
              ],
              "text": "ANGOCIN 850 mg"
            },
            "form": {
              "coding": [
                {
                  "system": "https://fhir.kbv.de/CodeSystem/KBV_CS_SFHIR_KBV_DARREICHUNGSFORM",
                  "code": "PSE"
                }
              ]
            },
            "amount": {
              "numerator": {
                "extension": [
                  {
                    "url": "https://fhir.kbv.de/StructureDefinition/KBV_EX_ERP_Medication_PackagingSize",
                    "valueString": "7"
                  }
                ],
                "unit": "Stk"
              },
              "denominator": {
                "value": 1
              }
            }
          }
        ],
        "identifier": [
          {
            "system": "https://gematik.de/fhir/erp/NamingSystem/GEM_ERP_NS_PrescriptionId",
            "value": "160.000.099.531.110.81"
          }
        ],
        "status": "completed",
        "medicationReference": {
          "reference": "#9957e333-2eb8-4dc1-8d3a-c91442628a33"
        },
        "subject": {
          "identifier": {
            "system": "http://fhir.de/sid/gkv/kvid-10",
            "value": "X110499478"
          }
        },
        "performer": [
          {
            "actor": {
              "identifier": {
                "system": "https://gematik.de/fhir/sid/telematik-id",
                "value": "5-2-KH-APO-Waldesrand-01"
              }
            }
          }
        ],
        "whenPrepared": "2024-07-29",
        "whenHandedOver": "2024-07-30"
      },
      "search": {
        "mode": "match"
      }
    },
    {
      "fullUrl": "https://erp-dev.zentral.erp.splitdns.ti-dienste.de/MedicationDispense/160.000.099.531.108.87",
      "resource": {
        "resourceType": "MedicationDispense",
        "id": "160.000.099.531.108.87",
        "meta": {
          "profile": [
            "https://gematik.de/fhir/erp/StructureDefinition/GEM_ERP_PR_MedicationDispense|1.2"
          ]
        },
        "contained": [
          {
            "resourceType": "Medication",
            "id": "c7156c2e-4d0e-451c-af3a-2ebfbef24dd4",
            "meta": {
              "profile": [
                "https://fhir.kbv.de/StructureDefinition/KBV_PR_ERP_Medication_PZN|1.1.0"
              ]
            },
            "extension": [
              {
                "url": "https://fhir.kbv.de/StructureDefinition/KBV_EX_Base_Medication_Type",
                "valueCodeableConcept": {
                  "coding": [
                    {
                      "system": "http://snomed.info/sct",
                      "version": "http://snomed.info/sct/900000000000207008/version/20220331",
                      "code": "763158003",
                      "display": "Medicinal product (product)"
                    }
                  ]
                }
              },
              {
                "url": "https://fhir.kbv.de/StructureDefinition/KBV_EX_ERP_Medication_Category",
                "valueCoding": {
                  "system": "https://fhir.kbv.de/CodeSystem/KBV_CS_ERP_Medication_Category",
                  "code": "00"
                }
              },
              {
                "url": "https://fhir.kbv.de/StructureDefinition/KBV_EX_ERP_Medication_Vaccine",
                "valueBoolean": false
              },
              {
                "url": "http://fhir.de/StructureDefinition/normgroesse",
                "valueCode": "NB"
              }
            ],
            "code": {
              "coding": [
                {
                  "system": "http://fhir.de/CodeSystem/ifa/pzn",
                  "code": "97496597"
                }
              ],
              "text": "Cetirizin-ADGC Pastillen 300 mg"
            },
            "form": {
              "coding": [
                {
                  "system": "https://fhir.kbv.de/CodeSystem/KBV_CS_SFHIR_KBV_DARREICHUNGSFORM",
                  "code": "TRS"
                }
              ]
            },
            "amount": {
              "numerator": {
                "extension": [
                  {
                    "url": "https://fhir.kbv.de/StructureDefinition/KBV_EX_ERP_Medication_PackagingSize",
                    "valueString": "18"
                  }
                ],
                "unit": "Stk"
              },
              "denominator": {
                "value": 1
              }
            }
          }
        ],
        "identifier": [
          {
            "system": "https://gematik.de/fhir/erp/NamingSystem/GEM_ERP_NS_PrescriptionId",
            "value": "160.000.099.531.108.87"
          }
        ],
        "status": "completed",
        "medicationReference": {
          "reference": "#c7156c2e-4d0e-451c-af3a-2ebfbef24dd4"
        },
        "subject": {
          "identifier": {
            "system": "http://fhir.de/sid/gkv/kvid-10",
            "value": "X110499478"
          }
        },
        "performer": [
          {
            "actor": {
              "identifier": {
                "system": "https://gematik.de/fhir/sid/telematik-id",
                "value": "5-2-KH-APO-Waldesrand-01"
              }
            }
          }
        ],
        "whenPrepared": "2024-07-29",
        "whenHandedOver": "2024-07-30"
      },
      "search": {
        "mode": "match"
      }
    },
    {
      "fullUrl": "https://erp-dev.zentral.erp.splitdns.ti-dienste.de/MedicationDispense/160.000.099.531.106.93",
      "resource": {
        "resourceType": "MedicationDispense",
        "id": "160.000.099.531.106.93",
        "meta": {
          "profile": [
            "https://gematik.de/fhir/erp/StructureDefinition/GEM_ERP_PR_MedicationDispense|1.2"
          ]
        },
        "contained": [
          {
            "resourceType": "Medication",
            "id": "1c089f4e-ffcd-4a17-ba7a-c283853b3c80",
            "meta": {
              "profile": [
                "https://fhir.kbv.de/StructureDefinition/KBV_PR_ERP_Medication_PZN|1.1.0"
              ]
            },
            "extension": [
              {
                "url": "https://fhir.kbv.de/StructureDefinition/KBV_EX_Base_Medication_Type",
                "valueCodeableConcept": {
                  "coding": [
                    {
                      "system": "http://snomed.info/sct",
                      "version": "http://snomed.info/sct/900000000000207008/version/20220331",
                      "code": "763158003",
                      "display": "Medicinal product (product)"
                    }
                  ]
                }
              },
              {
                "url": "https://fhir.kbv.de/StructureDefinition/KBV_EX_ERP_Medication_Category",
                "valueCoding": {
                  "system": "https://fhir.kbv.de/CodeSystem/KBV_CS_ERP_Medication_Category",
                  "code": "00"
                }
              },
              {
                "url": "https://fhir.kbv.de/StructureDefinition/KBV_EX_ERP_Medication_Vaccine",
                "valueBoolean": false
              },
              {
                "url": "http://fhir.de/StructureDefinition/normgroesse",
                "valueCode": "NB"
              }
            ],
            "code": {
              "coding": [
                {
                  "system": "http://fhir.de/CodeSystem/ifa/pzn",
                  "code": "34028116"
                }
              ],
              "text": "Ginkobil Kombipackung"
            },
            "form": {
              "coding": [
                {
                  "system": "https://fhir.kbv.de/CodeSystem/KBV_CS_SFHIR_KBV_DARREICHUNGSFORM",
                  "code": "TON"
                }
              ]
            },
            "amount": {
              "numerator": {
                "extension": [
                  {
                    "url": "https://fhir.kbv.de/StructureDefinition/KBV_EX_ERP_Medication_PackagingSize",
                    "valueString": "8"
                  }
                ],
                "unit": "Stk"
              },
              "denominator": {
                "value": 1
              }
            }
          }
        ],
        "identifier": [
          {
            "system": "https://gematik.de/fhir/erp/NamingSystem/GEM_ERP_NS_PrescriptionId",
            "value": "160.000.099.531.106.93"
          }
        ],
        "status": "completed",
        "medicationReference": {
          "reference": "#1c089f4e-ffcd-4a17-ba7a-c283853b3c80"
        },
        "subject": {
          "identifier": {
            "system": "http://fhir.de/sid/gkv/kvid-10",
            "value": "X110499478"
          }
        },
        "performer": [
          {
            "actor": {
              "identifier": {
                "system": "https://gematik.de/fhir/sid/telematik-id",
                "value": "5-2-KH-APO-Waldesrand-01"
              }
            }
          }
        ],
        "whenPrepared": "2024-07-29",
        "whenHandedOver": "2024-07-30"
      },
      "search": {
        "mode": "match"
      }
    }
  ],
  "link": [
    {
      "relation": "self",
      "url": "https://erp-dev.zentral.erp.splitdns.ti-dienste.de/MedicationDispense?whenprepared=eq2024-07-29&_sort=whenhandedover"
    }
  ]
}